reward_today,future_reward,delay,thisN,thisTrialN,thisRepN,key_resp.keys,key_resp.rt,key_resp.duration,trials.thisRepN,trials.thisTrialN,trials.thisN,trials.thisIndex,thisRow.t,notes,trial.started,fixation.started,text.started,key_resp.started,fixation.stopped,trial.stopped,trials.key_resp.keys,trials.key_resp.rt,trials.key_resp.duration,participant,session,date,expName,psychopyVersion,frameRate,expStart,
15,35,13,0,0,0,l,1.0334685000125319,None,0,0,0,1,0.07660280005075037,,0.07281769998371601,0.07660280005075037,1.0052109999815002,1.0052109999815002,1.0893708999501541,2.043832700001076,l,1.0334685000125319,None,804930,001,2024-11-21_14h32.23.980,Delay Discounting,2024.2.1post4,60.1869768847871,2024-11-21 14h32.31.034173 +0530,
27,50,21,1,1,0,l,0.8189937000861391,None,0,1,1,2,2.0551425999728963,,2.047672600019723,2.0551425999728963,3.055572499986738,3.055572499986738,3.055572499986738,3.891276399954222,l,0.8189937000861391,None,804930,001,2024-11-21_14h32.23.980,Delay Discounting,2024.2.1post4,60.1869768847871,2024-11-21 14h32.31.034173 +0530,
11,30,7,2,2,0,l,0.5870556000154465,None,0,2,2,0,3.9054597000358626,,3.8933210000395775,3.9054597000358626,4.905248700059019,4.905248700059019,4.905248700059019,5.5083467999938875,l,0.5870556000154465,None,804930,001,2024-11-21_14h32.23.980,Delay Discounting,2024.2.1post4,60.1869768847871,2024-11-21 14h32.31.034173 +0530,
67,75,119,3,3,0,t,0.8533076000167057,None,0,3,3,5,5.521727700019255,,5.511857100063935,5.521727700019255,6.521795199951157,6.521795199951157,6.521795199951157,7.391106300055981,t,0.8533076000167057,None,804930,001,2024-11-21_14h32.23.980,Delay Discounting,2024.2.1post4,60.1869768847871,2024-11-21 14h32.31.034173 +0530,
49,60,89,4,4,0,t,1.003254899987951,None,0,4,4,4,7.405247100046836,,7.394306299975142,7.405247100046836,8.40494340006262,8.40494340006262,8.40494340006262,9.42525209998712,t,1.003254899987951,None,804930,001,2024-11-21_14h32.23.980,Delay Discounting,2024.2.1post4,60.1869768847871,2024-11-21 14h32.31.034173 +0530,
40,55,62,5,5,0,l,1.023852700018324,None,0,5,5,3,9.438043300062418,,9.427557899965905,9.438043300062418,10.438807200058363,10.438807200058363,10.438807200058363,11.474834799999371,l,1.023852700018324,None,804930,001,2024-11-21_14h32.23.980,Delay Discounting,2024.2.1post4,60.1869768847871,2024-11-21 14h32.31.034173 +0530,
78,80,162,6,6,0,t,0.7591308000264689,None,0,6,6,6,11.48879269999452,,11.477453000028618,11.48879269999452,12.48856159998104,12.48856159998104,12.48856159998104,13.25796309998259,t,0.7591308000264689,None,804930,001,2024-11-21_14h32.23.980,Delay Discounting,2024.2.1post4,60.1869768847871,2024-11-21 14h32.31.034173 +0530,
11,30,7,7,0,1,l,0.6276474000187591,None,1,0,7,0,13.270958099979907,,13.260422199964523,13.270958099979907,14.272012799978256,14.272012799978256,14.272012799978256,14.907678300049156,l,0.6276474000187591,None,804930,001,2024-11-21_14h32.23.980,Delay Discounting,2024.2.1post4,60.1869768847871,2024-11-21 14h32.31.034173 +0530,
78,80,162,8,1,1,t,0.6820515999570489,None,1,1,8,6,14.921971900039352,,14.910171800060198,14.921971900039352,15.921772600035183,15.921772600035183,15.921772600035183,16.607971500023268,t,0.6820515999570489,None,804930,001,2024-11-21_14h32.23.980,Delay Discounting,2024.2.1post4,60.1869768847871,2024-11-21 14h32.31.034173 +0530,
40,55,62,9,2,1,l,1.0625106999650598,None,1,2,9,3,16.621847299975343,,16.61036970000714,16.621847299975343,17.62176200002432,17.62176200002432,17.62176200002432,18.69138460000977,l,1.0625106999650598,None,804930,001,2024-11-21_14h32.23.980,Delay Discounting,2024.2.1post4,60.1869768847871,2024-11-21 14h32.31.034173 +0530,
67,75,119,10,3,1,t,0.6421218999894336,None,1,3,10,5,18.70544319995679,,18.693620100035332,18.70544319995679,19.704401200055145,19.704401200055145,19.704401200055145,20.35745540005155,t,0.6421218999894336,None,804930,001,2024-11-21_14h32.23.980,Delay Discounting,2024.2.1post4,60.1869768847871,2024-11-21 14h32.31.034173 +0530,
15,35,13,11,4,1,l,0.7475734999170527,None,1,4,11,1,20.371493399958126,,20.35961349995341,20.371493399958126,21.37168510002084,21.37168510002084,21.37168510002084,22.124775500036776,l,0.7475734999170527,None,804930,001,2024-11-21_14h32.23.980,Delay Discounting,2024.2.1post4,60.1869768847871,2024-11-21 14h32.31.034173 +0530,
27,50,21,12,5,1,l,0.620202700025402,None,1,5,12,2,22.138193599996157,,22.12716230005026,22.138193599996157,23.13799299998209,23.13799299998209,23.13799299998209,23.774386700009927,l,0.620202700025402,None,804930,001,2024-11-21_14h32.23.980,Delay Discounting,2024.2.1post4,60.1869768847871,2024-11-21 14h32.31.034173 +0530,
49,60,89,13,6,1,t,0.9274102000053972,None,1,6,13,4,23.78767950006295,,23.776304400060326,23.78767950006295,24.78833799995482,24.78833799995482,24.78833799995482,25.724532600026578,t,0.9274102000053972,None,804930,001,2024-11-21_14h32.23.980,Delay Discounting,2024.2.1post4,60.1869768847871,2024-11-21 14h32.31.034173 +0530,
78,80,162,14,0,2,t,0.640252000070177,None,2,0,14,6,25.738057099981233,,25.727238600025885,25.738057099981233,26.738041799981147,26.738041799981147,26.738041799981147,27.391409100033343,t,0.640252000070177,None,804930,001,2024-11-21_14h32.23.980,Delay Discounting,2024.2.1post4,60.1869768847871,2024-11-21 14h32.31.034173 +0530,
27,50,21,15,1,2,t,0.3611538000404835,None,2,1,15,2,27.40444940002635,,27.394295600010082,27.40444940002635,28.40517030004412,28.40517030004412,28.40517030004412,28.77398539998103,t,0.3611538000404835,None,804930,001,2024-11-21_14h32.23.980,Delay Discounting,2024.2.1post4,60.1869768847871,2024-11-21 14h32.31.034173 +0530,
49,60,89,16,2,2,t,0.5667670000111684,None,2,2,16,4,28.788249099976383,,28.775938499951735,28.788249099976383,29.787988599971868,29.787988599971868,29.787988599971868,30.35748510004487,t,0.5667670000111684,None,804930,001,2024-11-21_14h32.23.980,Delay Discounting,2024.2.1post4,60.1869768847871,2024-11-21 14h32.31.034173 +0530,
11,30,7,17,3,2,l,0.5159296999918297,None,2,3,17,0,30.371817899984308,,30.359558399999514,30.371817899984308,31.370991199975833,31.370991199975833,31.370991199975833,31.891372599988244,l,0.5159296999918297,None,804930,001,2024-11-21_14h32.23.980,Delay Discounting,2024.2.1post4,60.1869768847871,2024-11-21 14h32.31.034173 +0530,
40,55,62,18,4,2,t,0.6842582999961451,None,2,4,18,3,31.90493499999866,,31.89342920004856,31.90493499999866,32.90468230005354,32.90468230005354,32.90468230005354,33.590876600006595,t,0.6842582999961451,None,804930,001,2024-11-21_14h32.23.980,Delay Discounting,2024.2.1post4,60.1869768847871,2024-11-21 14h32.31.034173 +0530,
67,75,119,19,5,2,t,0.8997041000984609,None,2,5,19,5,33.604416999965906,,33.59283019998111,33.604416999965906,34.60504269995727,34.60504269995727,34.60504269995727,35.507638999959454,t,0.8997041000984609,None,804930,001,2024-11-21_14h32.23.980,Delay Discounting,2024.2.1post4,60.1869768847871,2024-11-21 14h32.31.034173 +0530,
15,35,13,20,6,2,l,0.6652995999902487,None,2,6,20,1,35.52087350003421,,35.509570399997756,35.52087350003421,36.52107400004752,36.52107400004752,36.52107400004752,37.1911108000204,l,0.6652995999902487,None,804930,001,2024-11-21_14h32.23.980,Delay Discounting,2024.2.1post4,60.1869768847871,2024-11-21 14h32.31.034173 +0530,
11,30,7,21,0,3,l,0.6546197000425309,None,3,0,21,0,37.20454619999509,,37.19358349998947,37.20454619999509,38.20494419999886,38.20494419999886,38.20494419999886,38.87392160005402,l,0.6546197000425309,None,804930,001,2024-11-21_14h32.23.980,Delay Discounting,2024.2.1post4,60.1869768847871,2024-11-21 14h32.31.034173 +0530,
15,35,13,22,1,3,l,0.7061390000162646,None,3,1,22,1,38.88807069999166,,38.875826000003144,38.88807069999166,39.88815839996096,39.88815839996096,39.88815839996096,40.6080140999984,l,0.7061390000162646,None,804930,001,2024-11-21_14h32.23.980,Delay Discounting,2024.2.1post4,60.1869768847871,2024-11-21 14h32.31.034173 +0530,
27,50,21,23,2,3,l,0.6961107000242919,None,3,2,23,2,40.621678499970585,,40.61084680003114,40.621678499970585,41.621449499973096,41.621449499973096,41.621449499973096,42.32454990001861,l,0.6961107000242919,None,804930,001,2024-11-21_14h32.23.980,Delay Discounting,2024.2.1post4,60.1869768847871,2024-11-21 14h32.31.034173 +0530,
67,75,119,24,3,3,t,0.7189003999810666,None,3,3,24,5,42.337868400034495,,42.32712370005902,42.337868400034495,43.33791350002866,43.33791350002866,43.33791350002866,44.057949600042775,t,0.7189003999810666,None,804930,001,2024-11-21_14h32.23.980,Delay Discounting,2024.2.1post4,60.1869768847871,2024-11-21 14h32.31.034173 +0530,
78,80,162,25,4,3,t,1.0648485999554396,None,3,4,25,6,44.071391899953596,,44.05989429994952,44.071391899953596,45.07115109998267,45.07115109998267,45.07115109998267,46.14030700002331,t,1.0648485999554396,None,804930,001,2024-11-21_14h32.23.980,Delay Discounting,2024.2.1post4,60.1869768847871,2024-11-21 14h32.31.034173 +0530,
40,55,62,26,5,3,l,0.8057790999300778,None,3,5,26,3,46.15421319997404,,46.142404000042006,46.15421319997404,47.1543458000524,47.1543458000524,47.1543458000524,47.974275700049475,l,0.8057790999300778,None,804930,001,2024-11-21_14h32.23.980,Delay Discounting,2024.2.1post4,60.1869768847871,2024-11-21 14h32.31.034173 +0530,
49,60,89,27,6,3,t,2.7814003999810666,None,3,6,27,4,47.98875140002929,,47.97625089995563,47.98875140002929,48.988457900006324,48.988457900006324,48.988457900006324,51.77430769999046,t,2.7814003999810666,None,804930,001,2024-11-21_14h32.23.980,Delay Discounting,2024.2.1post4,60.1869768847871,2024-11-21 14h32.31.034173 +0530,
40,55,62,28,0,4,l,2.187361599993892,None,4,0,28,3,51.788210100028664,,51.77658549998887,51.788210100028664,52.78793470002711,52.78793470002711,52.78793470002711,54.990229699993506,l,2.187361599993892,None,804930,001,2024-11-21_14h32.23.980,Delay Discounting,2024.2.1post4,60.1869768847871,2024-11-21 14h32.31.034173 +0530,
49,60,89,29,1,4,t,1.0777504000579938,None,4,1,29,4,55.004104100051336,,54.99230959999841,55.004104100051336,56.00425870006438,56.00425870006438,56.00425870006438,57.08975579997059,t,1.0777504000579938,None,804930,001,2024-11-21_14h32.23.980,Delay Discounting,2024.2.1post4,60.1869768847871,2024-11-21 14h32.31.034173 +0530,
78,80,162,30,2,4,t,0.7602331000380218,None,4,2,30,6,57.10445710003842,,57.09168289997615,57.10445710003842,58.10414760001004,58.10414760001004,58.10414760001004,58.87320010003168,t,0.7602331000380218,None,804930,001,2024-11-21_14h32.23.980,Delay Discounting,2024.2.1post4,60.1869768847871,2024-11-21 14h32.31.034173 +0530,
15,35,13,31,3,4,l,0.7408699999796227,None,4,3,31,1,58.88756169995759,,58.87511929997709,58.88756169995759,59.887602400034666,59.887602400034666,59.887602400034666,60.64095579995774,l,0.7408699999796227,None,804930,001,2024-11-21_14h32.23.980,Delay Discounting,2024.2.1post4,60.1869768847871,2024-11-21 14h32.31.034173 +0530,
67,75,119,32,4,4,t,0.698823899962008,None,4,4,32,5,60.65400540002156,,60.643351300037466,60.65400540002156,61.65398169995751,61.65398169995751,61.65398169995751,62.357425400055945,t,0.698823899962008,None,804930,001,2024-11-21_14h32.23.980,Delay Discounting,2024.2.1post4,60.1869768847871,2024-11-21 14h32.31.034173 +0530,
11,30,7,33,5,4,l,0.7995402000378817,None,4,5,33,0,62.37125750002451,,62.35992209997494,62.37125750002451,63.370732499985024,63.370732499985024,63.370732499985024,64.17370050004683,l,0.7995402000378817,None,804930,001,2024-11-21_14h32.23.980,Delay Discounting,2024.2.1post4,60.1869768847871,2024-11-21 14h32.31.034173 +0530,
27,50,21,34,6,4,l,0.7524777000071481,None,4,6,34,2,64.1876466999529,,64.17564819997642,64.1876466999529,65.18775909999385,65.18775909999385,65.18775909999385,65.95649530005176,l,0.7524777000071481,None,804930,001,2024-11-21_14h32.23.980,Delay Discounting,2024.2.1post4,60.1869768847871,2024-11-21 14h32.31.034173 +0530,
15,35,13,35,0,5,l,0.6612024999922141,None,5,0,35,1,65.9707761000609,,65.95840750006028,65.9707761000609,66.9709862000309,66.9709862000309,66.9709862000309,67.64079980005044,l,0.6612024999922141,None,804930,001,2024-11-21_14h32.23.980,Delay Discounting,2024.2.1post4,60.1869768847871,2024-11-21 14h32.31.034173 +0530,
67,75,119,36,1,5,t,0.8080468999687582,None,5,1,36,5,67.65453070006333,,67.64293900004122,67.65453070006333,68.65452139999252,68.65452139999252,68.65452139999252,69.47358350001741,t,0.8080468999687582,None,804930,001,2024-11-21_14h32.23.980,Delay Discounting,2024.2.1post4,60.1869768847871,2024-11-21 14h32.31.034173 +0530,
27,50,21,37,2,5,l,0.9550445999484509,None,5,2,37,2,69.48791220004205,,69.47629889997188,69.48791220004205,70.48752700001933,70.48752700001933,70.48752700001933,71.45727400004398,l,0.9550445999484509,None,804930,001,2024-11-21_14h32.23.980,Delay Discounting,2024.2.1post4,60.1869768847871,2024-11-21 14h32.31.034173 +0530,
49,60,89,38,3,5,t,3.327863399987109,None,5,3,38,4,71.4706814000383,,71.45933720003814,71.4706814000383,72.47060330002569,72.47060330002569,72.47060330002569,75.80665599997155,t,3.327863399987109,None,804930,001,2024-11-21_14h32.23.980,Delay Discounting,2024.2.1post4,60.1869768847871,2024-11-21 14h32.31.034173 +0530,
78,80,162,39,4,5,l,0.7868647999130189,None,5,4,39,6,75.82116299995687,,75.80943370005116,75.82116299995687,76.82046950003132,76.82046950003132,76.82046950003132,77.62311339995358,l,0.7868647999130189,None,804930,001,2024-11-21_14h32.23.980,Delay Discounting,2024.2.1post4,60.1869768847871,2024-11-21 14h32.31.034173 +0530,
11,30,7,40,5,5,l,0.8584311000304297,None,5,5,40,0,77.63748659996781,,77.62500400003046,77.63748659996781,78.63724640000146,78.63724640000146,78.63724640000146,79.50719330005813,l,0.8584311000304297,None,804930,001,2024-11-21_14h32.23.980,Delay Discounting,2024.2.1post4,60.1869768847871,2024-11-21 14h32.31.034173 +0530,
40,55,62,41,6,5,l,1.1559443000005558,None,5,6,41,3,79.52096180000808,,79.51015089999419,79.52096180000808,80.52067190001253,80.52067190001253,80.52067190001253,81.6912068000529,l,1.1559443000005558,None,804930,001,2024-11-21_14h32.23.980,Delay Discounting,2024.2.1post4,60.1869768847871,2024-11-21 14h32.31.034173 +0530,
40,55,62,42,0,6,l,1.2426072999369353,None,6,0,42,3,81.70424410002306,,81.69134609994944,81.70424410002306,82.70424380002078,82.70424380002078,82.70424380002078,83.95653930003755,l,1.2426072999369353,None,804930,001,2024-11-21_14h32.23.980,Delay Discounting,2024.2.1post4,60.1869768847871,2024-11-21 14h32.31.034173 +0530,
15,35,13,43,1,6,t,4.284939700039104,None,6,1,43,1,83.97055129997898,,83.95899790001567,83.97055129997898,84.9707483999664,84.9707483999664,84.9707483999664,89.257245899993,t,4.284939700039104,None,804930,001,2024-11-21_14h32.23.980,Delay Discounting,2024.2.1post4,60.1869768847871,2024-11-21 14h32.31.034173 +0530,
78,80,162,44,2,6,t,2.180842899950221,None,6,2,44,6,89.27058670006227,,89.25954150001053,89.27058670006227,90.2707928000018,90.2707928000018,90.2707928000018,92.4567645000061,t,2.180842899950221,None,804930,001,2024-11-21_14h32.23.980,Delay Discounting,2024.2.1post4,60.1869768847871,2024-11-21 14h32.31.034173 +0530,
11,30,7,45,3,6,l,0.7430251999758184,None,6,3,45,0,92.47067549999338,,92.45890790002886,92.47067549999338,93.4710281000007,93.4710281000007,93.4710281000007,94.2231485999655,l,0.7430251999758184,None,804930,001,2024-11-21_14h32.23.980,Delay Discounting,2024.2.1post4,60.1869768847871,2024-11-21 14h32.31.034173 +0530,
27,50,21,46,4,6,l,0.7175734000047669,None,6,4,46,2,94.23731240001507,,94.2256558999652,94.23731240001507,95.23716829996556,95.23716829996556,95.23716829996556,95.95864910003729,l,0.7175734000047669,None,804930,001,2024-11-21_14h32.23.980,Delay Discounting,2024.2.1post4,60.1869768847871,2024-11-21 14h32.31.034173 +0530,
49,60,89,47,5,6,t,1.5871140999952331,None,6,5,47,4,95.97050920000765,,95.96085390006192,95.97050920000765,96.97078560001682,96.97078560001682,96.97078560001682,98.57317049999256,t,1.5871140999952331,None,804930,001,2024-11-21_14h32.23.980,Delay Discounting,2024.2.1post4,60.1869768847871,2024-11-21 14h32.31.034173 +0530,
67,75,119,48,6,6,t,0.784651399939321,None,6,6,48,5,98.58688900002744,,98.57531179999933,98.58688900002744,99.5874513000017,99.5874513000017,99.5874513000017,100.37367290002294,t,0.784651399939321,None,804930,001,2024-11-21_14h32.23.980,Delay Discounting,2024.2.1post4,60.1869768847871,2024-11-21 14h32.31.034173 +0530,
15,35,13,49,0,7,l,0.7532827000832185,None,7,0,49,1,100.38736409996636,,100.37609060003888,100.38736409996636,101.38699559995439,101.38699559995439,101.38699559995439,102.15677090000827,l,0.7532827000832185,None,804930,001,2024-11-21_14h32.23.980,Delay Discounting,2024.2.1post4,60.1869768847871,2024-11-21 14h32.31.034173 +0530,
40,55,62,50,1,7,t,4.008650799980387,None,7,1,50,3,102.17045239999425,,102.15959499997552,102.17045239999425,103.17098120006267,103.17098120006267,103.17098120006267,107.18990660004783,t,4.008650799980387,None,804930,001,2024-11-21_14h32.23.980,Delay Discounting,2024.2.1post4,60.1869768847871,2024-11-21 14h32.31.034173 +0530,
78,80,162,51,2,7,t,1.5221259000245482,None,7,2,51,6,107.20408010005485,,107.19191870000213,107.20408010005485,108.20391190005466,108.20391190005466,108.20391190005466,109.73995159997139,t,1.5221259000245482,None,804930,001,2024-11-21_14h32.23.980,Delay Discounting,2024.2.1post4,60.1869768847871,2024-11-21 14h32.31.034173 +0530,
49,60,89,52,3,7,t,1.849034099956043,None,7,3,52,4,109.75380920001771,,109.74227839999367,109.75380920001771,110.75373560003936,110.75373560003936,110.75373560003936,112.60625599999912,t,1.849034099956043,None,804930,001,2024-11-21_14h32.23.980,Delay Discounting,2024.2.1post4,60.1869768847871,2024-11-21 14h32.31.034173 +0530,
67,75,119,53,4,7,t,0.7275981000857428,None,7,4,53,5,112.62040240003262,,112.60842499998398,112.62040240003262,113.62066749995574,113.62066749995574,113.62066749995574,114.35659720003605,t,0.7275981000857428,None,804930,001,2024-11-21_14h32.23.980,Delay Discounting,2024.2.1post4,60.1869768847871,2024-11-21 14h32.31.034173 +0530,
27,50,21,54,5,7,l,0.8020189999369904,None,7,5,54,2,114.37083699996583,,114.35899900004733,114.37083699996583,115.3698353000218,115.3698353000218,115.3698353000218,116.17371200001799,l,0.8020189999369904,None,804930,001,2024-11-21_14h32.23.980,Delay Discounting,2024.2.1post4,60.1869768847871,2024-11-21 14h32.31.034173 +0530,
11,30,7,55,6,7,l,0.7526546000735834,None,7,6,55,0,116.18732100003399,,116.17594500002451,116.18732100003399,117.18714299995918,117.18714299995918,117.18714299995918,117.95626230002381,l,0.7526546000735834,None,804930,001,2024-11-21_14h32.23.980,Delay Discounting,2024.2.1post4,60.1869768847871,2024-11-21 14h32.31.034173 +0530,
15,35,13,56,0,8,l,0.8743034000508487,None,8,0,56,1,117.96966709999833,,117.9585064999992,117.96966709999833,118.9705748000415,118.9705748000415,118.9705748000415,119.8561725000618,l,0.8743034000508487,None,804930,001,2024-11-21_14h32.23.980,Delay Discounting,2024.2.1post4,60.1869768847871,2024-11-21 14h32.31.034173 +0530,
11,30,7,57,1,8,l,0.7447966999607161,None,8,1,57,0,119.87064640002791,,119.85861840005964,119.87064640002791,120.87014430004638,120.87014430004638,120.87014430004638,121.62373500003014,l,0.7447966999607161,None,804930,001,2024-11-21_14h32.23.980,Delay Discounting,2024.2.1post4,60.1869768847871,2024-11-21 14h32.31.034173 +0530,
78,80,162,58,2,8,t,0.6460397999035195,None,8,2,58,6,121.63704139995389,,121.62614690000191,121.63704139995389,122.63663980003912,122.63663980003912,122.63663980003912,123.28984850004781,t,0.6460397999035195,None,804930,001,2024-11-21_14h32.23.980,Delay Discounting,2024.2.1post4,60.1869768847871,2024-11-21 14h32.31.034173 +0530,
49,60,89,59,3,8,t,0.8117857999168336,None,8,3,59,4,123.30385480006225,,123.2922896000091,123.30385480006225,124.30371590005234,124.30371590005234,124.30371590005234,125.12251300003845,t,0.8117857999168336,None,804930,001,2024-11-21_14h32.23.980,Delay Discounting,2024.2.1post4,60.1869768847871,2024-11-21 14h32.31.034173 +0530,
67,75,119,60,4,8,t,0.7544542999239638,None,8,4,60,5,125.1367651000619,,125.12457800004631,125.1367651000619,126.13643890002277,126.13643890002277,126.13643890002277,126.90698029997293,t,0.7544542999239638,None,804930,001,2024-11-21_14h32.23.980,Delay Discounting,2024.2.1post4,60.1869768847871,2024-11-21 14h32.31.034173 +0530,
40,55,62,61,5,8,l,1.2161936999764293,None,8,5,61,3,126.91983849997632,,126.90904679999221,126.91983849997632,127.92064410005696,127.92064410005696,127.92064410005696,129.14061030000448,l,1.2161936999764293,None,804930,001,2024-11-21_14h32.23.980,Delay Discounting,2024.2.1post4,60.1869768847871,2024-11-21 14h32.31.034173 +0530,
27,50,21,62,6,8,l,2.733708499930799,None,8,6,62,2,129.15326010005083,,129.14352419995703,129.15326010005083,130.15314990002662,130.15314990002662,130.15314990002662,132.89008050004486,l,2.733708499930799,None,804930,001,2024-11-21_14h32.23.980,Delay Discounting,2024.2.1post4,60.1869768847871,2024-11-21 14h32.31.034173 +0530,
40,55,62,63,0,9,l,2.1728549000108615,None,9,0,63,3,132.90342700004112,,132.892093500006,132.90342700004112,133.9031597999856,133.9031597999856,133.9031597999856,136.08953800005838,l,2.1728549000108615,None,804930,001,2024-11-21_14h32.23.980,Delay Discounting,2024.2.1post4,60.1869768847871,2024-11-21 14h32.31.034173 +0530,
11,30,7,64,1,9,l,0.6108783000381663,None,9,1,64,0,136.1035168999806,,136.091488200007,136.1035168999806,137.10335200000554,137.10335200000554,137.10335200000554,137.72271640005056,l,0.6108783000381663,None,804930,001,2024-11-21_14h32.23.980,Delay Discounting,2024.2.1post4,60.1869768847871,2024-11-21 14h32.31.034173 +0530,
15,35,13,65,2,9,l,0.706752699916251,None,9,2,65,1,137.73658460006118,,137.72472159995232,137.73658460006118,138.73633610003162,138.73633610003162,138.73633610003162,139.45683030004147,l,0.706752699916251,None,804930,001,2024-11-21_14h32.23.980,Delay Discounting,2024.2.1post4,60.1869768847871,2024-11-21 14h32.31.034173 +0530,
49,60,89,66,3,9,t,0.9278555000200868,None,9,3,66,4,139.46988099999726,,139.4591628999915,139.46988099999726,140.47014460002538,140.47014460002538,140.47014460002538,141.4055099999532,t,0.9278555000200868,None,804930,001,2024-11-21_14h32.23.980,Delay Discounting,2024.2.1post4,60.1869768847871,2024-11-21 14h32.31.034173 +0530,
27,50,21,67,4,9,l,1.8499054999556392,None,9,4,67,2,141.4197982000187,,141.40759209997486,141.4197982000187,142.4195492999861,142.4195492999861,142.4195492999861,144.27276409999467,l,1.8499054999556392,None,804930,001,2024-11-21_14h32.23.980,Delay Discounting,2024.2.1post4,60.1869768847871,2024-11-21 14h32.31.034173 +0530,
67,75,119,68,5,9,t,1.1004685000516474,None,9,5,68,5,144.28698950004764,,144.27524300001096,144.28698950004764,145.28609169996344,145.28609169996344,145.28609169996344,146.3896486000158,t,1.1004685000516474,None,804930,001,2024-11-21_14h32.23.980,Delay Discounting,2024.2.1post4,60.1869768847871,2024-11-21 14h32.31.034173 +0530,
78,80,162,69,6,9,t,0.9445079000433907,None,9,6,69,6,146.4031981000444,,146.392243099981,146.4031981000444,147.40298959997017,147.40298959997017,147.40298959997017,148.35619079996832,t,0.9445079000433907,None,804930,001,2024-11-21_14h32.23.980,Delay Discounting,2024.2.1post4,60.1869768847871,2024-11-21 14h32.31.034173 +0530,
40,55,62,70,0,10,l,0.9720614000689238,None,10,0,70,3,148.37003099999856,,148.35903950000647,148.37003099999856,149.37019769998733,149.37019769998733,149.37019769998733,150.35672120004892,l,0.9720614000689238,None,804930,001,2024-11-21_14h32.23.980,Delay Discounting,2024.2.1post4,60.1869768847871,2024-11-21 14h32.31.034173 +0530,
67,75,119,71,1,10,t,1.0033728999551386,None,10,1,71,5,150.3696458999766,,150.35862109996378,150.3696458999766,151.3699093000032,151.3699093000032,151.3699093000032,152.39021980005782,t,1.0033728999551386,None,804930,001,2024-11-21_14h32.23.980,Delay Discounting,2024.2.1post4,60.1869768847871,2024-11-21 14h32.31.034173 +0530,
27,50,21,72,2,10,l,0.678018799982965,None,10,2,72,2,152.40290920005646,,152.39237030001823,152.40290920005646,153.40277549996972,153.40277549996972,153.40277549996972,154.08958260004874,l,0.678018799982965,None,804930,001,2024-11-21_14h32.23.980,Delay Discounting,2024.2.1post4,60.1869768847871,2024-11-21 14h32.31.034173 +0530,
15,35,13,73,3,10,l,2.1337360000470653,None,10,3,73,1,154.10306510003284,,154.0919190000277,154.10306510003284,155.10320320003666,155.10320320003666,155.10320320003666,157.23949029995129,l,2.1337360000470653,None,804930,001,2024-11-21_14h32.23.980,Delay Discounting,2024.2.1post4,60.1869768847871,2024-11-21 14h32.31.034173 +0530,
78,80,162,74,4,10,t,1.2725148999597877,None,10,4,74,6,157.25318350002635,,157.24138020002283,157.25318350002635,158.25277859997004,158.25277859997004,158.25277859997004,159.53909780003596,t,1.2725148999597877,None,804930,001,2024-11-21_14h32.23.980,Delay Discounting,2024.2.1post4,60.1869768847871,2024-11-21 14h32.31.034173 +0530,
11,30,7,75,5,10,l,0.9430665000109002,None,10,5,75,0,159.55270520003978,,159.54093300004024,159.55270520003978,160.5531949000433,160.5531949000433,160.5531949000433,161.50613820005674,l,0.9430665000109002,None,804930,001,2024-11-21_14h32.23.980,Delay Discounting,2024.2.1post4,60.1869768847871,2024-11-21 14h32.31.034173 +0530,
49,60,89,76,6,10,t,2.8909549000672996,None,10,6,76,4,161.52000530005898,,161.50920770002995,161.52000530005898,162.51937800005544,162.51937800005544,162.51937800005544,165.4233398999786,t,2.8909549000672996,None,804930,001,2024-11-21_14h32.23.980,Delay Discounting,2024.2.1post4,60.1869768847871,2024-11-21 14h32.31.034173 +0530,
11,30,7,77,0,11,l,0.6077418000204489,None,11,0,77,0,165.43648070003837,,165.42544989997987,165.43648070003837,166.43642689997796,166.43642689997796,166.43642689997796,167.05555329995696,l,0.6077418000204489,None,804930,001,2024-11-21_14h32.23.980,Delay Discounting,2024.2.1post4,60.1869768847871,2024-11-21 14h32.31.034173 +0530,
78,80,162,78,1,11,t,0.665541399968788,None,11,1,78,6,167.0694687999785,,167.05802850006148,167.0694687999785,168.06945750000887,168.06945750000887,168.06945750000887,168.739814999979,t,0.665541399968788,None,804930,001,2024-11-21_14h32.23.980,Delay Discounting,2024.2.1post4,60.1869768847871,2024-11-21 14h32.31.034173 +0530,
49,60,89,79,2,11,t,0.9582428999710828,None,11,2,79,4,168.7526252999669,,168.74221940001007,168.7526252999669,169.75327770004515,169.75327770004515,169.75327770004515,170.72323080000933,t,0.9582428999710828,None,804930,001,2024-11-21_14h32.23.980,Delay Discounting,2024.2.1post4,60.1869768847871,2024-11-21 14h32.31.034173 +0530,
27,50,21,80,3,11,l,0.5068889999529347,None,11,3,80,2,170.73668870003894,,170.72589460003655,170.73668870003894,171.73659190000035,171.73659190000035,171.73659190000035,172.25541079998948,l,0.5068889999529347,None,804930,001,2024-11-21_14h32.23.980,Delay Discounting,2024.2.1post4,60.1869768847871,2024-11-21 14h32.31.034173 +0530,
15,35,13,81,4,11,l,0.5452572000212967,None,11,4,81,1,172.2697200999828,,172.25733579997905,172.2697200999828,173.26940820005257,173.26940820005257,173.26940820005257,173.82201280002482,l,0.5452572000212967,None,804930,001,2024-11-21_14h32.23.980,Delay Discounting,2024.2.1post4,60.1869768847871,2024-11-21 14h32.31.034173 +0530,
40,55,62,82,5,11,l,1.671198800089769,None,11,5,82,3,173.83620949997567,,173.82466949999798,173.83620949997567,174.83644950005691,174.83644950005691,174.83644950005691,176.5228364999639,l,1.671198800089769,None,804930,001,2024-11-21_14h32.23.980,Delay Discounting,2024.2.1post4,60.1869768847871,2024-11-21 14h32.31.034173 +0530,
67,75,119,83,6,11,t,1.5958476999076083,None,11,6,83,5,176.53608710004482,,176.52538410003763,176.53608710004482,177.53636340005323,177.53636340005323,177.53636340005323,179.1383340000175,t,1.5958476999076083,None,804930,001,2024-11-21_14h32.23.980,Delay Discounting,2024.2.1post4,60.1869768847871,2024-11-21 14h32.31.034173 +0530,
15,35,13,84,0,12,l,0.8809161999961361,None,12,0,84,1,179.15299219998997,,179.1407162999967,179.15299219998997,180.1527712000534,180.1527712000534,180.1527712000534,181.03964299999643,l,0.8809161999961361,None,804930,001,2024-11-21_14h32.23.980,Delay Discounting,2024.2.1post4,60.1869768847871,2024-11-21 14h32.31.034173 +0530,
40,55,62,85,1,12,l,0.9148205000674352,None,12,1,85,3,181.05273080000188,,181.04286170005798,181.05273080000188,182.05257199995685,182.05257199995685,182.05257199995685,182.97277470002882,l,0.9148205000674352,None,804930,001,2024-11-21_14h32.23.980,Delay Discounting,2024.2.1post4,60.1869768847871,2024-11-21 14h32.31.034173 +0530,
11,30,7,86,2,12,l,0.647815200034529,None,12,2,86,0,182.98632510006428,,182.97488840005826,182.98632510006428,183.9862420000136,183.9862420000136,183.9862420000136,184.6390406000428,l,0.647815200034529,None,804930,001,2024-11-21_14h32.23.980,Delay Discounting,2024.2.1post4,60.1869768847871,2024-11-21 14h32.31.034173 +0530,
78,80,162,87,3,12,t,0.7610736000351608,None,12,3,87,6,184.65303090005182,,184.64133150002453,184.65303090005182,185.65229680004995,185.65229680004995,185.65229680004995,186.42258949996904,t,0.7610736000351608,None,804930,001,2024-11-21_14h32.23.980,Delay Discounting,2024.2.1post4,60.1869768847871,2024-11-21 14h32.31.034173 +0530,
27,50,21,88,4,12,l,0.7570995000423864,None,12,4,88,2,186.43592530000024,,186.42460569995455,186.43592530000024,187.43555439997,187.43555439997,187.43555439997,188.2061829000013,l,0.7570995000423864,None,804930,001,2024-11-21_14h32.23.980,Delay Discounting,2024.2.1post4,60.1869768847871,2024-11-21 14h32.31.034173 +0530,
67,75,119,89,5,12,t,1.1143532999558374,None,12,5,89,5,188.2191129999701,,188.20824429998174,188.2191129999701,189.21897409996018,189.21897409996018,189.21897409996018,190.33958869997878,t,1.1143532999558374,None,804930,001,2024-11-21_14h32.23.980,Delay Discounting,2024.2.1post4,60.1869768847871,2024-11-21 14h32.31.034173 +0530,
49,60,89,90,6,12,t,1.1586340999929234,None,12,6,90,4,190.35249199997634,,190.34246650000568,190.35249199997634,191.35273280006368,191.35273280006368,191.35273280006368,192.52252999995835,t,1.1586340999929234,None,804930,001,2024-11-21_14h32.23.980,Delay Discounting,2024.2.1post4,60.1869768847871,2024-11-21 14h32.31.034173 +0530,
11,30,7,91,0,13,l,0.5791263000573963,None,13,0,91,0,192.535701100016,,192.52443350001704,192.535701100016,193.535602799966,193.535602799966,193.535602799966,194.12277260003611,l,0.5791263000573963,None,804930,001,2024-11-21_14h32.23.980,Delay Discounting,2024.2.1post4,60.1869768847871,2024-11-21 14h32.31.034173 +0530,
67,75,119,92,1,13,t,0.5610945000080392,None,13,1,92,5,194.13578899996355,,194.12549630005378,194.13578899996355,195.13584630005062,195.13584630005062,195.13584630005062,195.70516080001835,t,0.5610945000080392,None,804930,001,2024-11-21_14h32.23.980,Delay Discounting,2024.2.1post4,60.1869768847871,2024-11-21 14h32.31.034173 +0530,
15,35,13,93,2,13,l,0.750834499951452,None,13,2,93,1,195.719475000049,,195.70768750004936,195.719475000049,196.71946489997208,196.71946489997208,196.71946489997208,197.4713294999674,l,0.750834499951452,None,804930,001,2024-11-21_14h32.23.980,Delay Discounting,2024.2.1post4,60.1869768847871,2024-11-21 14h32.31.034173 +0530,
78,80,162,94,3,13,t,0.6076278999680653,None,13,3,94,6,197.4858759000199,,197.473357400042,197.4858759000199,198.4858874999918,198.4858874999918,198.4858874999918,199.1066542000044,t,0.6076278999680653,None,804930,001,2024-11-21_14h32.23.980,Delay Discounting,2024.2.1post4,60.1869768847871,2024-11-21 14h32.31.034173 +0530,
40,55,62,95,4,13,l,0.8985982000594959,None,13,4,95,3,199.11903699999675,,199.10883699997794,199.11903699999675,200.11895579996053,200.11895579996053,200.11895579996053,201.02198129997123,l,0.8985982000594959,None,804930,001,2024-11-21_14h32.23.980,Delay Discounting,2024.2.1post4,60.1869768847871,2024-11-21 14h32.31.034173 +0530,
27,50,21,96,5,13,l,0.801151999970898,None,13,5,96,2,201.0354869000148,,201.02388059999794,201.0354869000148,202.0355617000023,202.0355617000023,202.0355617000023,202.8387650999939,l,0.801151999970898,None,804930,001,2024-11-21_14h32.23.980,Delay Discounting,2024.2.1post4,60.1869768847871,2024-11-21 14h32.31.034173 +0530,
49,60,89,97,6,13,t,0.7128549000481144,None,13,6,97,4,202.8526039000135,,202.84110129997134,202.8526039000135,203.8523070999654,203.8523070999654,203.8523070999654,204.5725892999908,t,0.7128549000481144,None,804930,001,2024-11-21_14h32.23.980,Delay Discounting,2024.2.1post4,60.1869768847871,2024-11-21 14h32.31.034173 +0530,
78,80,162,98,0,14,t,2.544746999978088,None,14,0,98,6,204.58560880005825,,204.57538890000433,204.58560880005825,205.58592930005398,205.58592930005398,205.58592930005398,208.13820499996655,t,2.544746999978088,None,804930,001,2024-11-21_14h32.23.980,Delay Discounting,2024.2.1post4,60.1869768847871,2024-11-21 14h32.31.034173 +0530,
67,75,119,99,1,14,t,1.4598906999453902,None,14,1,99,5,208.15225080004893,,208.14014889998361,208.15225080004893,209.15253249998204,209.15253249998204,209.15253249998204,210.62197119998746,t,1.4598906999453902,None,804930,001,2024-11-21_14h32.23.980,Delay Discounting,2024.2.1post4,60.1869768847871,2024-11-21 14h32.31.034173 +0530,
40,55,62,100,2,14,l,0.7327293999260291,None,14,2,100,3,210.63532390003093,,210.62386509997305,210.63532390003093,211.6359229000518,211.6359229000518,211.6359229000518,212.37259020004421,l,0.7327293999260291,None,804930,001,2024-11-21_14h32.23.980,Delay Discounting,2024.2.1post4,60.1869768847871,2024-11-21 14h32.31.034173 +0530,
11,30,7,101,3,14,l,2.263780300039798,None,14,3,101,0,212.38556840003002,,212.37450020003598,212.38556840003002,213.38546590006445,213.38546590006445,213.38546590006445,215.65510159998666,l,2.263780300039798,None,804930,001,2024-11-21_14h32.23.980,Delay Discounting,2024.2.1post4,60.1869768847871,2024-11-21 14h32.31.034173 +0530,
27,50,21,102,4,14,l,0.6564679000293836,None,14,4,102,2,215.66880800004583,,215.65776480000932,215.66880800004583,216.66896180005278,216.66896180005278,216.66896180005278,217.33907370001543,l,0.6564679000293836,None,804930,001,2024-11-21_14h32.23.980,Delay Discounting,2024.2.1post4,60.1869768847871,2024-11-21 14h32.31.034173 +0530,
15,35,13,103,5,14,l,1.0760089999530464,None,14,5,103,1,217.3519462000113,,217.34108889999334,217.3519462000113,218.351941299974,218.351941299974,218.351941299974,219.437924799975,l,1.0760089999530464,None,804930,001,2024-11-21_14h32.23.980,Delay Discounting,2024.2.1post4,60.1869768847871,2024-11-21 14h32.31.034173 +0530,
49,60,89,104,6,14,t,0.7798060999484733,None,14,6,104,4,219.45186619996093,,219.4398588000331,219.45186619996093,220.45241669996176,220.45241669996176,220.45241669996176,221.23863639996853,t,0.7798060999484733,None,804930,001,2024-11-21_14h32.23.980,Delay Discounting,2024.2.1post4,60.1869768847871,2024-11-21 14h32.31.034173 +0530,
