reward_today,future_reward,delay,thisN,thisTrialN,thisRepN,key_resp.keys,key_resp.rt,key_resp.duration,trials.thisRepN,trials.thisTrialN,trials.thisN,trials.thisIndex,thisRow.t,notes,trial.started,fixation.started,text.started,key_resp.started,fixation.stopped,trial.stopped,trials.key_resp.keys,trials.key_resp.rt,trials.key_resp.duration,participant,session,date,expName,psychopyVersion,frameRate,expStart,
78,80,162,0,0,0,t,74.76938469999004,None,0,0,0,6,0.23744009993970394,,0.21404310001526028,0.23744009993970394,1.0027244000229985,1.0027244000229985,1.2376510000322014,75.78735729993787,t,74.76938469999004,None,880028,001,2024-11-21_14h14.14.143,Delay Discounting,2024.2.1post4,60.62891590212886,2024-11-21 14h14.23.127371 +0530,
67,75,119,1,1,0,l,4.341872400022112,None,0,1,1,5,75.80144750000909,,75.79090399993584,75.80144750000909,76.801604499924,76.801604499924,76.801604499924,81.15473309997469,l,4.341872400022112,None,880028,001,2024-11-21_14h14.14.143,Delay Discounting,2024.2.1post4,60.62891590212886,2024-11-21 14h14.23.127371 +0530,
27,50,21,2,2,0,l,3.630345999961719,None,0,2,2,2,81.16871629992966,,81.15677559992764,81.16871629992966,82.16819350002334,82.16819350002334,82.16819350002334,85.80460689996835,l,3.630345999961719,None,880028,001,2024-11-21_14h14.14.143,Delay Discounting,2024.2.1post4,60.62891590212886,2024-11-21 14h14.23.127371 +0530,
11,30,7,3,3,0,l,2.6775761999888346,None,0,3,3,0,85.81841649999842,,85.80898570001591,85.81841649999842,86.81875089998357,86.81875089998357,86.81875089998357,89.50450239994098,l,2.6775761999888346,None,880028,001,2024-11-21_14h14.14.143,Delay Discounting,2024.2.1post4,60.62891590212886,2024-11-21 14h14.23.127371 +0530,
49,60,89,4,4,0,t,7.281409499933943,None,0,4,4,4,89.51835030002985,,89.50796319998335,89.51835030002985,90.51870110002346,90.51870110002346,90.51870110002346,97.80488239997067,t,7.281409499933943,None,880028,001,2024-11-21_14h14.14.143,Delay Discounting,2024.2.1post4,60.62891590212886,2024-11-21 14h14.23.127371 +0530,
15,35,13,5,5,0,l,2.9509141000453383,None,0,5,5,1,97.81875570002012,,97.80692459992133,97.81875570002012,98.81802040000912,98.81802040000912,98.81802040000912,101.77114009996876,l,2.9509141000453383,None,880028,001,2024-11-21_14h14.14.143,Delay Discounting,2024.2.1post4,60.62891590212886,2024-11-21 14h14.23.127371 +0530,
40,55,62,6,6,0,t,1.8615889999782667,None,0,6,6,3,101.78535090002697,,101.773166900035,101.78535090002697,102.78532769996673,102.78532769996673,102.78532769996673,104.65483130002394,t,1.8615889999782667,None,880028,001,2024-11-21_14h14.14.143,Delay Discounting,2024.2.1post4,60.62891590212886,2024-11-21 14h14.23.127371 +0530,
27,50,21,7,0,1,l,2.791638399939984,None,1,0,7,2,104.667798499926,,104.65702239994425,104.667798499926,105.66806479997467,105.66806479997467,105.66806479997467,108.47080539993476,l,2.791638399939984,None,880028,001,2024-11-21_14h14.14.143,Delay Discounting,2024.2.1post4,60.62891590212886,2024-11-21 14h14.23.127371 +0530,
49,60,89,8,1,1,l,2.9540673999581486,None,1,1,8,4,108.48450090002734,,108.47318329999689,108.48450090002734,109.48440680000931,109.48440680000931,109.48440680000931,112.45434749999549,l,2.9540673999581486,None,880028,001,2024-11-21_14h14.14.143,Delay Discounting,2024.2.1post4,60.62891590212886,2024-11-21 14h14.23.127371 +0530,
67,75,119,9,2,1,t,5.540476999944076,None,1,2,9,5,112.46797500003595,,112.45655939995777,112.46797500003595,113.46880959998816,113.46880959998816,113.46880959998816,119.02052689995617,t,5.540476999944076,None,880028,001,2024-11-21_14h14.14.143,Delay Discounting,2024.2.1post4,60.62891590212886,2024-11-21 14h14.23.127371 +0530,
40,55,62,10,3,1,t,9.105695700040087,None,1,3,10,3,119.03451259993017,,119.0227158999769,119.03451259993017,120.03442609997,120.03442609997,120.03442609997,129.15471409994643,t,9.105695700040087,None,880028,001,2024-11-21_14h14.14.143,Delay Discounting,2024.2.1post4,60.62891590212886,2024-11-21 14h14.23.127371 +0530,
78,80,162,11,4,1,t,4.9269006999675184,None,1,4,11,6,129.1679038000293,,129.15673879999667,129.1679038000293,130.1677270999644,130.1677270999644,130.1677270999644,135.1044601999456,t,4.9269006999675184,None,880028,001,2024-11-21_14h14.14.143,Delay Discounting,2024.2.1post4,60.62891590212886,2024-11-21 14h14.23.127371 +0530,
11,30,7,12,5,1,l,3.862501799943857,None,1,5,12,0,135.11771070002578,,135.10678439994808,135.11771070002578,136.11816860002,136.11816860002,136.11816860002,139.9871647999389,l,3.862501799943857,None,880028,001,2024-11-21_14h14.14.143,Delay Discounting,2024.2.1post4,60.62891590212886,2024-11-21 14h14.23.127371 +0530,
15,35,13,13,6,1,l,4.936433400027454,None,1,6,13,1,140.0015749000013,,139.9893096999731,140.0015749000013,141.00138349994086,141.00138349994086,141.00138349994086,145.95355610002298,l,4.936433400027454,None,880028,001,2024-11-21_14h14.14.143,Delay Discounting,2024.2.1post4,60.62891590212886,2024-11-21 14h14.23.127371 +0530,
15,35,13,14,0,2,l,4.701870699995197,None,2,0,14,1,145.9675864999881,,145.9536858999636,145.9675864999881,146.96796259994153,146.96796259994153,146.96796259994153,151.6872097000014,l,4.701870699995197,None,880028,001,2024-11-21_14h14.14.143,Delay Discounting,2024.2.1post4,60.62891590212886,2024-11-21 14h14.23.127371 +0530,
78,80,162,15,1,2,t,1.5633051000768319,None,2,1,15,6,151.70087109995075,,151.68960509996396,151.70087109995075,152.701114699943,152.701114699943,152.701114699943,154.2700882999925,t,1.5633051000768319,None,880028,001,2024-11-21_14h14.14.143,Delay Discounting,2024.2.1post4,60.62891590212886,2024-11-21 14h14.23.127371 +0530,
67,75,119,16,2,2,t,3.6655611998867244,None,2,2,16,5,154.2839736000169,,154.2722814999288,154.2839736000169,155.28412999992725,155.28412999992725,155.28412999992725,158.9535810999805,t,3.6655611998867244,None,880028,001,2024-11-21_14h14.14.143,Delay Discounting,2024.2.1post4,60.62891590212886,2024-11-21 14h14.23.127371 +0530,
40,55,62,17,3,2,t,2.307204999960959,None,2,3,17,3,158.96714989992324,,158.9555621999316,158.96714989992324,159.96703039994463,159.96703039994463,159.96703039994463,162.28701949992683,t,2.307204999960959,None,880028,001,2024-11-21_14h14.14.143,Delay Discounting,2024.2.1post4,60.62891590212886,2024-11-21 14h14.23.127371 +0530,
11,30,7,18,4,2,l,2.980607399949804,None,2,4,18,0,162.3003889999818,,162.28901599999517,162.3003889999818,163.30069569998886,163.30069569998886,163.30069569998886,166.28679689997807,l,2.980607399949804,None,880028,001,2024-11-21_14h14.14.143,Delay Discounting,2024.2.1post4,60.62891590212886,2024-11-21 14h14.23.127371 +0530,
27,50,21,19,5,2,l,2.389519599964842,None,2,5,19,2,166.3000906999223,,166.28888110001571,166.3000906999223,167.30049389996566,167.30049389996566,167.30049389996566,169.70342789997812,l,2.389519599964842,None,880028,001,2024-11-21_14h14.14.143,Delay Discounting,2024.2.1post4,60.62891590212886,2024-11-21 14h14.23.127371 +0530,
49,60,89,20,6,2,l,2.469611700042151,None,2,6,20,4,169.7175507999491,,169.70544839999638,169.7175507999491,170.71736489993054,170.71736489993054,170.71736489993054,173.2037461999571,l,2.469611700042151,None,880028,001,2024-11-21_14h14.14.143,Delay Discounting,2024.2.1post4,60.62891590212886,2024-11-21 14h14.23.127371 +0530,
67,75,119,21,0,3,t,3.61857049993705,None,3,0,21,5,173.2175446000183,,173.20590669999365,173.2175446000183,174.21686859999318,174.21686859999318,174.21686859999318,177.85344819992315,t,3.61857049993705,None,880028,001,2024-11-21_14h14.14.143,Delay Discounting,2024.2.1post4,60.62891590212886,2024-11-21 14h14.23.127371 +0530,
11,30,7,22,1,3,l,2.7888128999620676,None,3,1,22,0,177.86759689997416,,177.8558997999644,177.86759689997416,178.86727889999747,178.86727889999747,178.86727889999747,181.66922919999342,l,2.7888128999620676,None,880028,001,2024-11-21_14h14.14.143,Delay Discounting,2024.2.1post4,60.62891590212886,2024-11-21 14h14.23.127371 +0530,
49,60,89,23,2,3,t,2.3721666000783443,None,3,2,23,4,181.6835018999409,,181.6715560000157,181.6835018999409,182.68392789992504,182.68392789992504,182.68392789992504,185.06988279998768,t,2.3721666000783443,None,880028,001,2024-11-21_14h14.14.143,Delay Discounting,2024.2.1post4,60.62891590212886,2024-11-21 14h14.23.127371 +0530,
15,35,13,24,3,3,l,4.008278199937195,None,3,3,24,1,185.0841178999981,,185.0718552999897,185.0841178999981,186.08366579993162,186.08366579993162,186.08366579993162,190.10330740001518,l,4.008278199937195,None,880028,001,2024-11-21_14h14.14.143,Delay Discounting,2024.2.1post4,60.62891590212886,2024-11-21 14h14.23.127371 +0530,
27,50,21,25,4,3,l,1.7468605999602005,None,3,4,25,2,190.11715499998536,,190.10527479997836,190.11715499998536,191.1168390000239,191.1168390000239,191.1168390000239,192.87009320000652,l,1.7468605999602005,None,880028,001,2024-11-21_14h14.14.143,Delay Discounting,2024.2.1post4,60.62891590212886,2024-11-21 14h14.23.127371 +0530,
40,55,62,26,5,3,t,4.419434400042519,None,3,5,26,3,192.88341360003687,,192.87211410002783,192.88341360003687,193.88415739999618,193.88415739999618,193.88415739999618,198.32027929998003,t,4.419434400042519,None,880028,001,2024-11-21_14h14.14.143,Delay Discounting,2024.2.1post4,60.62891590212886,2024-11-21 14h14.23.127371 +0530,
78,80,162,27,6,3,t,2.0449914999771863,None,3,6,27,6,198.3333535999991,,198.32227659993805,198.3333535999991,199.33353539998643,199.33353539998643,199.33353539998643,201.38626189995557,t,2.0449914999771863,None,880028,001,2024-11-21_14h14.14.143,Delay Discounting,2024.2.1post4,60.62891590212886,2024-11-21 14h14.23.127371 +0530,
11,30,7,28,0,4,l,3.1601946000009775,None,4,0,28,0,201.40009629994165,,201.38884070003405,201.40009629994165,202.40025820001028,202.40025820001028,202.40025820001028,205.57093019993044,l,3.1601946000009775,None,880028,001,2024-11-21_14h14.14.143,Delay Discounting,2024.2.1post4,60.62891590212886,2024-11-21 14h14.23.127371 +0530,
15,35,13,29,1,4,l,2.8614277000306174,None,4,1,29,1,205.58349310001358,,205.57340009999461,205.58349310001358,206.58317829994485,206.58317829994485,206.58317829994485,209.45284949999768,l,2.8614277000306174,None,880028,001,2024-11-21_14h14.14.143,Delay Discounting,2024.2.1post4,60.62891590212886,2024-11-21 14h14.23.127371 +0530,
49,60,89,30,2,4,l,2.8861024000216275,None,4,2,30,4,209.4666032999521,,209.45507819997147,209.4666032999521,210.46674659999553,210.46674659999553,210.46674659999553,213.36902580002788,l,2.8861024000216275,None,880028,001,2024-11-21_14h14.14.143,Delay Discounting,2024.2.1post4,60.62891590212886,2024-11-21 14h14.23.127371 +0530,
40,55,62,31,3,4,t,3.8517643000232056,None,4,3,31,3,213.38314199994784,,213.37119340000208,213.38314199994784,214.38316690002102,214.38316690002102,214.38316690002102,218.23606719996314,t,3.8517643000232056,None,880028,001,2024-11-21_14h14.14.143,Delay Discounting,2024.2.1post4,60.62891590212886,2024-11-21 14h14.23.127371 +0530,
78,80,162,32,4,4,t,1.448194499942474,None,4,4,32,6,218.2497386999894,,218.23812440002803,218.2497386999894,219.25022809999064,219.25022809999064,219.25022809999064,220.70296839997172,t,1.448194499942474,None,880028,001,2024-11-21_14h14.14.143,Delay Discounting,2024.2.1post4,60.62891590212886,2024-11-21 14h14.23.127371 +0530,
67,75,119,33,5,4,t,4.967099200002849,None,4,5,33,5,220.71628219995182,,220.7051347999368,220.71628219995182,221.71653069998138,221.71653069998138,221.71653069998138,226.68637330003548,t,4.967099200002849,None,880028,001,2024-11-21_14h14.14.143,Delay Discounting,2024.2.1post4,60.62891590212886,2024-11-21 14h14.23.127371 +0530,
27,50,21,34,6,4,l,1.6238650999730453,None,4,6,34,2,226.69953169999644,,226.6885330999503,226.69953169999644,227.69997339998372,227.69997339998372,227.69997339998372,229.3358396999538,l,1.6238650999730453,None,880028,001,2024-11-21_14h14.14.143,Delay Discounting,2024.2.1post4,60.62891590212886,2024-11-21 14h14.23.127371 +0530,
49,60,89,35,0,5,t,1.959295600070618,None,5,0,35,4,229.34960219997447,,229.33782559994143,229.34960219997447,230.34962450002786,230.34962450002786,230.34962450002786,232.31898979994003,t,1.959295600070618,None,880028,001,2024-11-21_14h14.14.143,Delay Discounting,2024.2.1post4,60.62891590212886,2024-11-21 14h14.23.127371 +0530,
27,50,21,36,1,5,l,2.6750517999753356,None,5,1,36,2,232.33402049995493,,232.3209602999268,232.33402049995493,233.3338307000231,233.3338307000231,233.34936859994195,236.01969779992942,l,2.6750517999753356,None,880028,001,2024-11-21_14h14.14.143,Delay Discounting,2024.2.1post4,60.62891590212886,2024-11-21 14h14.23.127371 +0530,
40,55,62,37,2,5,l,3.217610799940303,None,5,2,37,3,236.0335604000138,,236.0217818999663,236.0335604000138,237.03274769999553,237.03274769999553,237.03274769999553,240.25253930001054,l,3.217610799940303,None,880028,001,2024-11-21_14h14.14.143,Delay Discounting,2024.2.1post4,60.62891590212886,2024-11-21 14h14.23.127371 +0530,
15,35,13,38,3,5,l,2.608550600009039,None,5,3,38,1,240.26623459998518,,240.2545100999996,240.26623459998518,241.2655276999576,241.2655276999576,241.2655276999576,243.88539359997958,l,2.608550600009039,None,880028,001,2024-11-21_14h14.14.143,Delay Discounting,2024.2.1post4,60.62891590212886,2024-11-21 14h14.23.127371 +0530,
78,80,162,39,4,5,t,1.4467263999395072,None,5,4,39,6,243.89954310003668,,243.88774289994035,243.89954310003668,244.8993570000166,244.8993570000166,244.8993570000166,246.35191909992136,t,1.4467263999395072,None,880028,001,2024-11-21_14h14.14.143,Delay Discounting,2024.2.1post4,60.62891590212886,2024-11-21 14h14.23.127371 +0530,
11,30,7,40,5,5,l,3.1887367999879643,None,5,5,40,0,246.36626839998644,,246.35389709996525,246.36626839998644,247.36617499997374,247.36617499997374,247.36617499997374,250.5690485999221,l,3.1887367999879643,None,880028,001,2024-11-21_14h14.14.143,Delay Discounting,2024.2.1post4,60.62891590212886,2024-11-21 14h14.23.127371 +0530,
67,75,119,41,6,5,t,3.167200999916531,None,5,6,41,5,250.5826146999607,,250.57103699992876,250.5826146999607,251.5823787000263,251.5823787000263,251.5823787000263,254.75209790002555,t,3.167200999916531,None,880028,001,2024-11-21_14h14.14.143,Delay Discounting,2024.2.1post4,60.62891590212886,2024-11-21 14h14.23.127371 +0530,
15,35,13,42,0,6,l,2.088018500013277,None,6,0,42,1,254.76632799999788,,254.75408250000328,254.76632799999788,255.76617950003128,255.76617950003128,255.76617950003128,257.86889859999064,l,2.088018500013277,None,880028,001,2024-11-21_14h14.14.143,Delay Discounting,2024.2.1post4,60.62891590212886,2024-11-21 14h14.23.127371 +0530,
40,55,62,43,1,6,l,3.620342400041409,None,6,1,43,3,257.882477200008,,257.8709909999743,257.882477200008,258.88287989993114,258.88287989993114,258.88287989993114,262.51863409997895,l,3.620342400041409,None,880028,001,2024-11-21_14h14.14.143,Delay Discounting,2024.2.1post4,60.62891590212886,2024-11-21 14h14.23.127371 +0530,
78,80,162,44,2,6,t,2.366175499977544,None,6,2,44,6,262.53231969999615,,262.5210049999878,262.53231969999615,263.5323988000164,263.5323988000164,263.5323988000164,265.9018371999264,t,2.366175499977544,None,880028,001,2024-11-21_14h14.14.143,Delay Discounting,2024.2.1post4,60.62891590212886,2024-11-21 14h14.23.127371 +0530,
27,50,21,45,3,6,l,1.7961269000079483,None,6,3,45,2,265.9157303000102,,265.90400620002765,265.9157303000102,266.91562949994113,266.91562949994113,266.91562949994113,268.7187757999636,l,1.7961269000079483,None,880028,001,2024-11-21_14h14.14.143,Delay Discounting,2024.2.1post4,60.62891590212886,2024-11-21 14h14.23.127371 +0530,
49,60,89,46,4,6,l,3.6492173000006005,None,6,4,46,4,268.73277260002214,,268.7208722999785,268.73277260002214,269.7326722999569,269.7326722999569,269.7326722999569,273.38555689994246,l,3.6492173000006005,None,880028,001,2024-11-21_14h14.14.143,Delay Discounting,2024.2.1post4,60.62891590212886,2024-11-21 14h14.23.127371 +0530,
67,75,119,47,5,6,t,3.501793900039047,None,6,5,47,5,273.39901559997816,,273.38780919997953,273.39901559997816,274.399016499985,274.399016499985,274.399016499985,277.90212500002235,t,3.501793900039047,None,880028,001,2024-11-21_14h14.14.143,Delay Discounting,2024.2.1post4,60.62891590212886,2024-11-21 14h14.23.127371 +0530,
11,30,7,48,6,6,l,2.6017517000436783,None,6,6,48,0,277.9157179000322,,277.9045719000278,277.9157179000322,278.91576330002863,278.91576330002863,278.91576330002863,281.51839530002326,l,2.6017517000436783,None,880028,001,2024-11-21_14h14.14.143,Delay Discounting,2024.2.1post4,60.62891590212886,2024-11-21 14h14.23.127371 +0530,
67,75,119,49,0,7,t,3.155994699918665,None,7,0,49,5,281.5324595000129,,281.52083219995257,281.5324595000129,282.5324011000339,282.5324011000339,282.5324011000339,285.7017454999732,t,3.155994699918665,None,880028,001,2024-11-21_14h14.14.143,Delay Discounting,2024.2.1post4,60.62891590212886,2024-11-21 14h14.23.127371 +0530,
40,55,62,50,1,7,l,5.407051399932243,None,7,1,50,3,285.7156466000015,,285.7039032999892,285.7156466000015,286.71558820002247,286.71558820002247,286.71558820002247,292.13484309997875,l,5.407051399932243,None,880028,001,2024-11-21_14h14.14.143,Delay Discounting,2024.2.1post4,60.62891590212886,2024-11-21 14h14.23.127371 +0530,
11,30,7,51,2,7,l,1.88513970002532,None,7,2,51,0,292.14897989993915,,292.13682809995953,292.14897989993915,293.1489031999372,293.1489031999372,293.1489031999372,295.0353185000131,l,1.88513970002532,None,880028,001,2024-11-21_14h14.14.143,Delay Discounting,2024.2.1post4,60.62891590212886,2024-11-21 14h14.23.127371 +0530,
27,50,21,52,3,7,l,2.617713400046341,None,7,3,52,2,295.0488004999934,,295.0374434000114,295.0488004999934,296.0484741999535,296.0484741999535,296.0484741999535,298.6681130999932,l,2.617713400046341,None,880028,001,2024-11-21_14h14.14.143,Delay Discounting,2024.2.1post4,60.62891590212886,2024-11-21 14h14.23.127371 +0530,
78,80,162,53,4,7,t,1.9491790999891236,None,7,4,53,6,298.6824676999822,,298.6700829999754,298.6824676999822,299.6823391999351,299.6823391999351,299.6823391999351,301.6348129999824,t,1.9491790999891236,None,880028,001,2024-11-21_14h14.14.143,Delay Discounting,2024.2.1post4,60.62891590212886,2024-11-21 14h14.23.127371 +0530,
49,60,89,54,5,7,l,1.7944250999717042,None,7,5,54,4,301.64841379993595,,301.6367702999851,301.64841379993595,302.6483109999681,302.6483109999681,302.6483109999681,304.452391800005,l,1.7944250999717042,None,880028,001,2024-11-21_14h14.14.143,Delay Discounting,2024.2.1post4,60.62891590212886,2024-11-21 14h14.23.127371 +0530,
15,35,13,55,6,7,l,2.6122968000127003,None,7,6,55,1,304.46489089995157,,304.45435230003204,304.46489089995157,305.46536809997633,305.46536809997633,305.46536809997633,308.08470010000747,l,2.6122968000127003,None,880028,001,2024-11-21_14h14.14.143,Delay Discounting,2024.2.1post4,60.62891590212886,2024-11-21 14h14.23.127371 +0530,
27,50,21,56,0,8,l,2.170752900070511,None,8,0,56,2,308.0986341999378,,308.0870147999376,308.0986341999378,309.09841989993583,309.09841989993583,309.09841989993583,311.2839733000146,l,2.170752900070511,None,880028,001,2024-11-21_14h14.14.143,Delay Discounting,2024.2.1post4,60.62891590212886,2024-11-21 14h14.23.127371 +0530,
40,55,62,57,1,8,l,3.5398271000012755,None,8,1,57,3,311.2986251999391,,311.286767099984,311.2986251999391,312.29843239998445,312.29843239998445,312.29843239998445,315.851333300001,l,3.5398271000012755,None,880028,001,2024-11-21_14h14.14.143,Delay Discounting,2024.2.1post4,60.62891590212886,2024-11-21 14h14.23.127371 +0530,
49,60,89,58,2,8,l,4.241589199984446,None,8,2,58,4,315.86526919994503,,315.8534845999675,315.86526919994503,316.8652621000074,316.8652621000074,316.8652621000074,321.1180487999227,l,4.241589199984446,None,880028,001,2024-11-21_14h14.14.143,Delay Discounting,2024.2.1post4,60.62891590212886,2024-11-21 14h14.23.127371 +0530,
67,75,119,59,3,8,t,2.0690367000643164,None,8,3,59,5,321.13177019997966,,321.1200062999269,321.13177019997966,322.13230239995755,322.13230239995755,322.13230239995755,324.2178930999944,t,2.0690367000643164,None,880028,001,2024-11-21_14h14.14.143,Delay Discounting,2024.2.1post4,60.62891590212886,2024-11-21 14h14.23.127371 +0530,
11,30,7,60,4,8,l,1.3173785000108182,None,8,4,60,0,324.23231520003174,,324.220570400008,324.23231520003174,325.231409,325.231409,325.231409,326.55171949998476,l,1.3173785000108182,None,880028,001,2024-11-21_14h14.14.143,Delay Discounting,2024.2.1post4,60.62891590212886,2024-11-21 14h14.23.127371 +0530,
15,35,13,61,5,8,l,1.8107496000593528,None,8,5,61,1,326.5650747999316,,326.5537656999659,326.5650747999316,327.56512069993187,327.56512069993187,327.56512069993187,329.3849482999649,l,1.8107496000593528,None,880028,001,2024-11-21_14h14.14.143,Delay Discounting,2024.2.1post4,60.62891590212886,2024-11-21 14h14.23.127371 +0530,
78,80,162,62,6,8,t,1.481255799997598,None,8,6,62,6,329.39831790002063,,329.3870444999775,329.39831790002063,330.398189599975,330.398189599975,330.398189599975,331.88451989996247,t,1.481255799997598,None,880028,001,2024-11-21_14h14.14.143,Delay Discounting,2024.2.1post4,60.62891590212886,2024-11-21 14h14.23.127371 +0530,
27,50,21,63,0,9,l,1.6512719999300316,None,9,0,63,2,331.89806889998727,,331.88651420001406,331.89806889998727,332.8979909999762,332.8979909999762,332.8979909999762,334.5515984999947,l,1.6512719999300316,None,880028,001,2024-11-21_14h14.14.143,Delay Discounting,2024.2.1post4,60.62891590212886,2024-11-21 14h14.23.127371 +0530,
78,80,162,64,1,9,t,2.355885799974203,None,9,1,64,6,334.56558409996796,,334.5535821999656,334.56558409996796,335.56517299998086,335.56517299998086,335.56517299998086,337.9341649999842,t,2.355885799974203,None,880028,001,2024-11-21_14h14.14.143,Delay Discounting,2024.2.1post4,60.62891590212886,2024-11-21 14h14.23.127371 +0530,
40,55,62,65,2,9,t,3.5684858000604436,None,9,2,65,3,337.94783550000284,,337.93643390003126,337.94783550000284,338.9481622999301,338.9481622999301,338.9481622999301,342.51793039997574,t,3.5684858000604436,None,880028,001,2024-11-21_14h14.14.143,Delay Discounting,2024.2.1post4,60.62891590212886,2024-11-21 14h14.23.127371 +0530,
67,75,119,66,3,9,t,2.1502915000310168,None,9,3,66,5,342.5313976999605,,342.51988499995787,342.5313976999605,343.53127519995905,343.53127519995905,343.53127519995905,345.6850890000351,t,2.1502915000310168,None,880028,001,2024-11-21_14h14.14.143,Delay Discounting,2024.2.1post4,60.62891590212886,2024-11-21 14h14.23.127371 +0530,
15,35,13,67,4,9,l,1.189218100043945,None,9,4,67,1,345.6988261999795,,345.6870629999321,345.6988261999795,346.6984261999605,346.6984261999605,346.6984261999605,347.9008630999597,l,1.189218100043945,None,880028,001,2024-11-21_14h14.14.143,Delay Discounting,2024.2.1post4,60.62891590212886,2024-11-21 14h14.23.127371 +0530,
11,30,7,68,5,9,t,0.7950278000207618,None,9,5,68,0,347.914793599979,,347.9029540999327,347.914793599979,348.91489599994384,348.91489599994384,348.91489599994384,349.71816749998834,t,0.7950278000207618,None,880028,001,2024-11-21_14h14.14.143,Delay Discounting,2024.2.1post4,60.62891590212886,2024-11-21 14h14.23.127371 +0530,
49,60,89,69,6,9,l,4.908194000017829,None,9,6,69,4,349.73156480002217,,349.7201027999399,349.73156480002217,350.73219459992833,350.73219459992833,350.73219459992833,355.65102819993626,l,4.908194000017829,None,880028,001,2024-11-21_14h14.14.143,Delay Discounting,2024.2.1post4,60.62891590212886,2024-11-21 14h14.23.127371 +0530,
78,80,162,70,0,10,t,1.575747499940917,None,10,0,70,6,355.6646187999286,,355.65356449992396,355.6646187999286,356.66476269997656,356.66476269997656,356.66476269997656,358.25134059996344,t,1.575747499940917,None,880028,001,2024-11-21_14h14.14.143,Delay Discounting,2024.2.1post4,60.62891590212886,2024-11-21 14h14.23.127371 +0530,
27,50,21,71,1,10,l,1.254439300042577,None,10,1,71,2,358.264106299961,,358.25343239994254,358.264106299961,359.2648120999802,359.2648120999802,359.2648120999802,360.53434729995206,l,1.254439300042577,None,880028,001,2024-11-21_14h14.14.143,Delay Discounting,2024.2.1post4,60.62891590212886,2024-11-21 14h14.23.127371 +0530,
67,75,119,72,2,10,t,1.6521535000065342,None,10,2,72,5,360.5479479000205,,360.5369662999874,360.5479479000205,361.54787399992347,361.54787399992347,361.54787399992347,363.20100070000626,t,1.6521535000065342,None,880028,001,2024-11-21_14h14.14.143,Delay Discounting,2024.2.1post4,60.62891590212886,2024-11-21 14h14.23.127371 +0530,
11,30,7,73,3,10,l,4.8392591999145225,None,10,3,73,0,363.2147233999567,,363.20301830000244,363.2147233999567,364.2148376000114,364.2148376000114,364.2148376000114,369.0687420000322,l,4.8392591999145225,None,880028,001,2024-11-21_14h14.14.143,Delay Discounting,2024.2.1post4,60.62891590212886,2024-11-21 14h14.23.127371 +0530,
40,55,62,74,4,10,l,6.316311899921857,None,10,4,74,3,369.0813326999778,,369.07110199995805,369.0813326999778,370.0814875999931,370.0814875999931,370.0814875999931,376.4015496999491,l,6.316311899921857,None,880028,001,2024-11-21_14h14.14.143,Delay Discounting,2024.2.1post4,60.62891590212886,2024-11-21 14h14.23.127371 +0530,
49,60,89,75,5,10,t,7.4403818000573665,None,10,5,75,4,376.41476379998494,,376.40355239994824,376.41476379998494,377.41477329994086,377.41477329994086,377.41477329994086,384.8672464999836,t,7.4403818000573665,None,880028,001,2024-11-21_14h14.14.143,Delay Discounting,2024.2.1post4,60.62891590212886,2024-11-21 14h14.23.127371 +0530,
15,35,13,76,6,10,l,5.071195299969986,None,10,6,76,1,384.88105249998625,,384.8692527000094,384.88105249998625,385.8809006999945,385.8809006999945,385.8809006999945,390.9666698999936,l,5.071195299969986,None,880028,001,2024-11-21_14h14.14.143,Delay Discounting,2024.2.1post4,60.62891590212886,2024-11-21 14h14.23.127371 +0530,
15,35,13,77,0,11,l,1.435564500046894,None,11,0,77,1,390.98046600003727,,390.9667996999342,390.98046600003727,391.98105960001703,391.98105960001703,391.98105960001703,393.41846610000357,l,1.435564500046894,None,880028,001,2024-11-21_14h14.14.143,Delay Discounting,2024.2.1post4,60.62891590212886,2024-11-21 14h14.23.127371 +0530,
11,30,7,78,1,11,l,1.366863299976103,None,11,1,78,0,393.43159729999024,,393.42044210003223,393.43159729999024,394.43067649996374,394.43067649996374,394.43067649996374,395.80076429992914,l,1.366863299976103,None,880028,001,2024-11-21_14h14.14.143,Delay Discounting,2024.2.1post4,60.62891590212886,2024-11-21 14h14.23.127371 +0530,
78,80,162,79,2,11,t,6.992215100093745,None,11,2,79,6,395.8143606999656,,395.8030497999862,395.8143606999656,396.8144085999811,396.8144085999811,396.8144085999811,403.81678819993977,t,6.992215100093745,None,880028,001,2024-11-21_14h14.14.143,Delay Discounting,2024.2.1post4,60.62891590212886,2024-11-21 14h14.23.127371 +0530,
27,50,21,80,3,11,l,1.3360460000112653,None,11,3,80,2,403.83083110000007,,403.8187270000344,403.83083110000007,404.8308591999812,404.8308591999812,404.8308591999812,406.1834965000162,l,1.3360460000112653,None,880028,001,2024-11-21_14h14.14.143,Delay Discounting,2024.2.1post4,60.62891590212886,2024-11-21 14h14.23.127371 +0530,
40,55,62,81,4,11,l,2.821745300083421,None,11,4,81,3,406.19735939998645,,406.1854806999909,406.19735939998645,407.19753070001025,407.19753070001025,407.19753070001025,410.0343805999728,l,2.821745300083421,None,880028,001,2024-11-21_14h14.14.143,Delay Discounting,2024.2.1post4,60.62891590212886,2024-11-21 14h14.23.127371 +0530,
49,60,89,82,5,11,l,2.102894500014372,None,11,5,82,4,410.04692400002386,,410.036362899933,410.04692400002386,411.0475685999263,411.0475685999263,411.0475685999263,413.1517305999296,l,2.102894500014372,None,880028,001,2024-11-21_14h14.14.143,Delay Discounting,2024.2.1post4,60.62891590212886,2024-11-21 14h14.23.127371 +0530,
67,75,119,83,6,11,t,1.7062581999925897,None,11,6,83,5,413.16364659997635,,413.15372159995604,413.16364659997635,414.1634516000049,414.1634516000049,414.1634516000049,415.88366179994773,t,1.7062581999925897,None,880028,001,2024-11-21_14h14.14.143,Delay Discounting,2024.2.1post4,60.62891590212886,2024-11-21 14h14.23.127371 +0530,
11,30,7,84,0,12,l,1.3917879000073299,None,12,0,84,0,415.8972434999887,,415.8857854999369,415.8972434999887,416.89703759993427,416.89703759993427,416.89703759993427,418.29997980000917,l,1.3917879000073299,None,880028,001,2024-11-21_14h14.14.143,Delay Discounting,2024.2.1post4,60.62891590212886,2024-11-21 14h14.23.127371 +0530,
67,75,119,85,1,12,t,1.5147292000474408,None,12,1,85,5,418.3143082000315,,418.30211869999766,418.3143082000315,419.31349730002694,419.31349730002694,419.31349730002694,420.83362849999685,t,1.5147292000474408,None,880028,001,2024-11-21_14h14.14.143,Delay Discounting,2024.2.1post4,60.62891590212886,2024-11-21 14h14.23.127371 +0530,
78,80,162,86,2,12,t,1.4658775000134483,None,12,2,86,6,420.84711440000683,,420.8357737000333,420.84711440000683,421.8473330999259,421.8473330999259,421.8473330999259,423.3164779000217,t,1.4658775000134483,None,880028,001,2024-11-21_14h14.14.143,Delay Discounting,2024.2.1post4,60.62891590212886,2024-11-21 14h14.23.127371 +0530,
15,35,13,87,3,12,l,1.2189274000702426,None,12,3,87,1,423.330548799946,,423.31884359999094,423.330548799946,424.3311003999552,424.3311003999552,424.3311003999552,425.5674544000067,l,1.2189274000702426,None,880028,001,2024-11-21_14h14.14.143,Delay Discounting,2024.2.1post4,60.62891590212886,2024-11-21 14h14.23.127371 +0530,
49,60,89,88,4,12,l,1.6691884000319988,None,12,4,88,4,425.58062209992204,,425.5695921999868,425.58062209992204,426.58065419993363,426.58065419993363,426.58065419993363,428.26662719994783,l,1.6691884000319988,None,880028,001,2024-11-21_14h14.14.143,Delay Discounting,2024.2.1post4,60.62891590212886,2024-11-21 14h14.23.127371 +0530,
40,55,62,89,5,12,l,4.236302200006321,None,12,5,89,3,428.2803461999865,,428.26857149996795,428.2803461999865,429.2805281999754,429.2805281999754,429.2805281999754,433.5336073000217,l,4.236302200006321,None,880028,001,2024-11-21_14h14.14.143,Delay Discounting,2024.2.1post4,60.62891590212886,2024-11-21 14h14.23.127371 +0530,
27,50,21,90,6,12,l,3.584243799909018,None,12,6,90,2,433.5472432000097,,433.5357238999568,433.5472432000097,434.5467234000098,434.5467234000098,434.5467234000098,438.1332990999799,l,3.584243799909018,None,880028,001,2024-11-21_14h14.14.143,Delay Discounting,2024.2.1post4,60.62891590212886,2024-11-21 14h14.23.127371 +0530,
15,35,13,91,0,13,l,1.3511892000678927,None,13,0,91,1,438.1469761999324,,438.1353697000304,438.1469761999324,439.14719649998005,439.14719649998005,439.14719649998005,440.499978799955,l,1.3511892000678927,None,880028,001,2024-11-21_14h14.14.143,Delay Discounting,2024.2.1post4,60.62891590212886,2024-11-21 14h14.23.127371 +0530,
11,30,7,92,1,13,l,1.0322871000971645,None,13,1,92,0,440.51395970000885,,440.5019090999849,440.51395970000885,441.51342620002106,441.51342620002106,441.51342620002106,442.5497363000177,l,1.0322871000971645,None,880028,001,2024-11-21_14h14.14.143,Delay Discounting,2024.2.1post4,60.62891590212886,2024-11-21 14h14.23.127371 +0530,
67,75,119,93,2,13,t,1.2740611999761313,None,13,2,93,5,442.5638946000254,,442.5517022999702,442.5638946000254,443.5630584999453,443.5630584999453,443.5630584999453,444.84978259995114,t,1.2740611999761313,None,880028,001,2024-11-21_14h14.14.143,Delay Discounting,2024.2.1post4,60.62891590212886,2024-11-21 14h14.23.127371 +0530,
78,80,162,94,3,13,t,1.7659658000338823,None,13,3,94,6,444.86394760000985,,444.8521404999774,444.86394760000985,445.86348269996233,445.86348269996233,445.86348269996233,447.63286020001397,t,1.7659658000338823,None,880028,001,2024-11-21_14h14.14.143,Delay Discounting,2024.2.1post4,60.62891590212886,2024-11-21 14h14.23.127371 +0530,
40,55,62,95,4,13,l,2.9787312999833375,None,13,4,95,3,447.6468473999994,,447.6348561999621,447.6468473999994,448.6465942999348,448.6465942999348,448.6465942999348,451.6324464000063,l,2.9787312999833375,None,880028,001,2024-11-21_14h14.14.143,Delay Discounting,2024.2.1post4,60.62891590212886,2024-11-21 14h14.23.127371 +0530,
27,50,21,96,5,13,l,0.6199791000690311,None,13,5,96,2,451.64711989997886,,451.63457739993464,451.64711989997886,452.64677300001495,452.64677300001495,452.64677300001495,453.2823555000359,l,0.6199791000690311,None,880028,001,2024-11-21_14h14.14.143,Delay Discounting,2024.2.1post4,60.62891590212886,2024-11-21 14h14.23.127371 +0530,
49,60,89,97,6,13,l,3.8683237999211997,None,13,6,97,4,453.29640089999884,,453.28431709995493,453.29640089999884,454.297368700034,454.297368700034,454.297368700034,458.1822760000359,l,3.8683237999211997,None,880028,001,2024-11-21_14h14.14.143,Delay Discounting,2024.2.1post4,60.62891590212886,2024-11-21 14h14.23.127371 +0530,
15,35,13,98,0,14,l,2.6228629000252113,None,14,0,98,1,458.1964447000064,,458.1842891999986,458.1964447000064,459.1967523000203,459.1967523000203,459.1967523000203,461.8329272000119,l,2.6228629000252113,None,880028,001,2024-11-21_14h14.14.143,Delay Discounting,2024.2.1post4,60.62891590212886,2024-11-21 14h14.23.127371 +0530,
49,60,89,99,1,14,t,1.275044500012882,None,14,1,99,4,461.8466515999753,,461.8349901000038,461.8466515999753,462.84664779994637,462.84664779994637,462.84664779994637,464.1325846000109,t,1.275044500012882,None,880028,001,2024-11-21_14h14.14.143,Delay Discounting,2024.2.1post4,60.62891590212886,2024-11-21 14h14.23.127371 +0530,
27,50,21,100,2,14,l,2.29162840009667,None,14,2,100,2,464.14659729995765,,464.1345284000272,464.14659729995765,465.1471270000329,465.1471270000329,465.1471270000329,467.4493672000244,l,2.29162840009667,None,880028,001,2024-11-21_14h14.14.143,Delay Discounting,2024.2.1post4,60.62891590212886,2024-11-21 14h14.23.127371 +0530,
78,80,162,101,3,14,t,1.2151162999216467,None,14,3,101,6,467.4635505999904,,467.4513187999837,467.4635505999904,468.4634935000213,468.4634935000213,468.4634935000213,469.6827737999847,t,1.2151162999216467,None,880028,001,2024-11-21_14h14.14.143,Delay Discounting,2024.2.1post4,60.62891590212886,2024-11-21 14h14.23.127371 +0530,
11,30,7,102,4,14,l,1.6929281998891383,None,14,4,102,0,469.69645229994785,,469.68470919993706,469.69645229994785,470.696691500023,470.696691500023,470.696691500023,472.3994369999273,l,1.6929281998891383,None,880028,001,2024-11-21_14h14.14.143,Delay Discounting,2024.2.1post4,60.62891590212886,2024-11-21 14h14.23.127371 +0530,
67,75,119,103,5,14,t,0.9376214999938384,None,14,5,103,5,472.4131664999295,,472.40162409993354,472.4131664999295,473.4130469999509,473.4130469999509,473.4130469999509,474.36520779994316,t,0.9376214999938384,None,880028,001,2024-11-21_14h14.14.143,Delay Discounting,2024.2.1post4,60.62891590212886,2024-11-21 14h14.23.127371 +0530,
40,55,62,104,6,14,l,2.8410127999959514,None,14,6,104,3,474.37978449999355,,474.36716819996946,474.37978449999355,475.379875899991,475.379875899991,475.379875899991,478.2328885999741,l,2.8410127999959514,None,880028,001,2024-11-21_14h14.14.143,Delay Discounting,2024.2.1post4,60.62891590212886,2024-11-21 14h14.23.127371 +0530,
