reward_today,future_reward,delay,thisN,thisTrialN,thisRepN,key_resp.keys,key_resp.rt,key_resp.duration,trials.thisRepN,trials.thisTrialN,trials.thisN,trials.thisIndex,thisRow.t,notes,trial.started,fixation.started,text.started,key_resp.started,fixation.stopped,trial.stopped,trials.key_resp.keys,trials.key_resp.rt,trials.key_resp.duration,participant,session,date,expName,psychopyVersion,frameRate,expStart,
78,80,162,0,0,0,t,1.8109791000606492,None,0,0,0,6,0.205630199983716,,0.2015109999338165,0.205630199983716,1.0002496000379324,1.0002496000379324,1.2171882999828085,2.88788149994798,t,1.8109791000606492,None,902306,001,2024-11-21_14h23.01.886,Delay Discounting,2024.2.1post4,59.76561122231058,2024-11-21 14h23.09.910227 +0530,
15,35,13,1,1,0,l,1.194518300006166,None,0,1,1,1,2.8954776000464335,,2.8910408000228927,2.8954776000464335,3.900003799935803,3.900003799935803,3.900003799935803,5.102225200040266,l,1.194518300006166,None,902306,001,2024-11-21_14h23.01.886,Delay Discounting,2024.2.1post4,59.76561122231058,2024-11-21 14h23.09.910227 +0530,
40,55,62,2,2,0,l,1.927019799943082,None,0,2,2,3,5.116677499958314,,5.105099200038239,5.116677499958314,6.1167601000051945,6.1167601000051945,6.1167601000051945,8.053517899941653,l,1.927019799943082,None,902306,001,2024-11-21_14h23.01.886,Delay Discounting,2024.2.1post4,59.76561122231058,2024-11-21 14h23.09.910227 +0530,
27,50,21,3,3,0,l,1.071686200099066,None,0,3,3,2,8.066653699963354,,8.056464200024493,8.066653699963354,9.06706279993523,9.06706279993523,9.06706279993523,10.153022599988617,l,1.071686200099066,None,902306,001,2024-11-21_14h23.01.886,Delay Discounting,2024.2.1post4,59.76561122231058,2024-11-21 14h23.09.910227 +0530,
11,30,7,4,4,0,l,1.2190761000383645,None,0,4,4,0,10.167038599960506,,10.15502770000603,10.167038599960506,11.166505699977279,11.166505699977279,11.166505699977279,12.386650200001895,l,1.2190761000383645,None,902306,001,2024-11-21_14h23.01.886,Delay Discounting,2024.2.1post4,59.76561122231058,2024-11-21 14h23.09.910227 +0530,
49,60,89,5,5,0,t,1.1336059999885038,None,0,5,5,4,12.400036599952728,,12.389522099983878,12.400036599952728,13.39988020004239,13.39988020004239,13.39988020004239,14.537186400033534,t,1.1336059999885038,None,902306,001,2024-11-21_14h23.01.886,Delay Discounting,2024.2.1post4,59.76561122231058,2024-11-21 14h23.09.910227 +0530,
67,75,119,6,6,0,t,1.2776233999757096,None,0,6,6,5,14.550141599960625,,14.540033799945377,14.550141599960625,15.550000299932435,15.550000299932435,15.550000299932435,16.836513499962166,t,1.2776233999757096,None,902306,001,2024-11-21_14h23.01.886,Delay Discounting,2024.2.1post4,59.76561122231058,2024-11-21 14h23.09.910227 +0530,
15,35,13,7,0,1,l,1.7175817999523133,None,1,0,7,1,16.850218700012192,,16.838747999980114,16.850218700012192,17.850025599938817,17.850025599938817,17.850025599938817,19.57006089994684,l,1.7175817999523133,None,902306,001,2024-11-21_14h23.01.886,Delay Discounting,2024.2.1post4,59.76561122231058,2024-11-21 14h23.09.910227 +0530,
40,55,62,8,1,1,l,2.8846514000324532,None,1,1,8,3,19.583730099955574,,19.572011500014924,19.583730099955574,20.58319269993808,20.58319269993808,20.58319269993808,23.469760700012557,l,2.8846514000324532,None,902306,001,2024-11-21_14h23.01.886,Delay Discounting,2024.2.1post4,59.76561122231058,2024-11-21 14h23.09.910227 +0530,
27,50,21,9,2,1,l,4.251539299963042,None,1,2,9,2,23.483884599991143,,23.471703900024295,23.483884599991143,24.483985499944538,24.483985499944538,24.483985499944538,28.7368712000316,l,4.251539299963042,None,902306,001,2024-11-21_14h23.01.886,Delay Discounting,2024.2.1post4,59.76561122231058,2024-11-21 14h23.09.910227 +0530,
11,30,7,10,3,1,t,3.556173500022851,None,1,3,10,0,28.749960000044666,,28.739401099970564,28.749960000044666,29.75000560004264,29.75000560004264,29.75000560004264,33.319964200025424,t,3.556173500022851,None,902306,001,2024-11-21_14h23.01.886,Delay Discounting,2024.2.1post4,59.76561122231058,2024-11-21 14h23.09.910227 +0530,
78,80,162,11,4,1,t,1.8344906999263912,None,1,4,11,6,33.33343110000715,,33.32289549999405,33.33343110000715,34.332761500030756,34.332761500030756,34.332761500030756,36.16868699993938,t,1.8344906999263912,None,902306,001,2024-11-21_14h23.01.886,Delay Discounting,2024.2.1post4,59.76561122231058,2024-11-21 14h23.09.910227 +0530,
49,60,89,12,5,1,l,3.1067556000780314,None,1,5,12,4,36.182981699937955,,36.17197959998157,36.182981699937955,37.18307379994076,37.18307379994076,37.18307379994076,40.30253800004721,l,3.1067556000780314,None,902306,001,2024-11-21_14h23.01.886,Delay Discounting,2024.2.1post4,59.76561122231058,2024-11-21 14h23.09.910227 +0530,
67,75,119,13,6,1,t,2.343057200079784,None,1,6,13,5,40.317120800027624,,40.30451159994118,40.317120800027624,41.3177743999986,41.3177743999986,41.3177743999986,43.669396799989045,t,2.343057200079784,None,902306,001,2024-11-21_14h23.01.886,Delay Discounting,2024.2.1post4,59.76561122231058,2024-11-21 14h23.09.910227 +0530,
49,60,89,14,0,2,l,4.565940200001933,None,2,0,14,4,43.68296979996376,,43.67243639996741,43.68296979996376,44.683466500020586,44.683466500020586,44.683466500020586,49.252891700016335,l,4.565940200001933,None,902306,001,2024-11-21_14h23.01.886,Delay Discounting,2024.2.1post4,59.76561122231058,2024-11-21 14h23.09.910227 +0530,
27,50,21,15,1,2,l,1.2511818000348285,None,2,1,15,2,49.26647829997819,,49.25494649994653,49.26647829997819,50.2664774999721,50.2664774999721,50.2664774999721,51.519521999987774,l,1.2511818000348285,None,902306,001,2024-11-21_14h23.01.886,Delay Discounting,2024.2.1post4,59.76561122231058,2024-11-21 14h23.09.910227 +0530,
78,80,162,16,2,2,t,2.538724899990484,None,2,2,16,6,51.53335219994187,,51.522503399988636,51.53335219994187,52.53264600003604,52.53264600003604,52.53264600003604,55.08546460000798,t,2.538724899990484,None,902306,001,2024-11-21_14h23.01.886,Delay Discounting,2024.2.1post4,59.76561122231058,2024-11-21 14h23.09.910227 +0530,
15,35,13,17,3,2,l,0.8060012001078576,None,2,3,17,1,55.09960840002168,,55.08740650000982,55.09960840002168,56.099382799933665,56.099382799933665,56.099382799933665,56.91879270004574,l,0.8060012001078576,None,902306,001,2024-11-21_14h23.01.886,Delay Discounting,2024.2.1post4,59.76561122231058,2024-11-21 14h23.09.910227 +0530,
40,55,62,18,4,2,l,1.9563376000151038,None,2,4,18,3,56.933219099999405,,56.9208638999844,56.933219099999405,57.93275369994808,57.93275369994808,57.93275369994808,59.90277669997886,l,1.9563376000151038,None,902306,001,2024-11-21_14h23.01.886,Delay Discounting,2024.2.1post4,59.76561122231058,2024-11-21 14h23.09.910227 +0530,
11,30,7,19,5,2,l,1.0120139999780804,None,2,5,19,0,59.9157600000035,,59.90474279993214,59.9157600000035,60.916524500004016,60.916524500004016,60.916524500004016,61.935991500038654,l,1.0120139999780804,None,902306,001,2024-11-21_14h23.01.886,Delay Discounting,2024.2.1post4,59.76561122231058,2024-11-21 14h23.09.910227 +0530,
67,75,119,20,6,2,l,2.496713600005023,None,2,6,20,5,61.94935759995133,,61.938367799972184,61.94935759995133,62.949341299943626,62.949341299943626,62.949341299943626,65.45323770004325,l,2.496713600005023,None,902306,001,2024-11-21_14h23.01.886,Delay Discounting,2024.2.1post4,59.76561122231058,2024-11-21 14h23.09.910227 +0530,
78,80,162,21,0,3,t,1.6325662999879569,None,3,0,21,6,65.46624870004598,,65.45572420000099,65.46624870004598,66.46619499998633,66.46619499998633,66.46619499998633,68.10216619994026,t,1.6325662999879569,None,902306,001,2024-11-21_14h23.01.886,Delay Discounting,2024.2.1post4,59.76561122231058,2024-11-21 14h23.09.910227 +0530,
15,35,13,22,1,3,l,1.2893886999227107,None,3,1,22,1,68.11642850004137,,68.10425920004491,68.11642850004137,69.11619390000124,69.11619390000124,69.11619390000124,70.41994239995256,l,1.2893886999227107,None,902306,001,2024-11-21_14h23.01.886,Delay Discounting,2024.2.1post4,59.76561122231058,2024-11-21 14h23.09.910227 +0530,
67,75,119,23,2,3,l,2.686053700046614,None,3,2,23,5,70.4326111000264,,70.4229072999442,70.4326111000264,71.43266639998183,71.43266639998183,71.43266639998183,74.12001559999771,l,2.686053700046614,None,902306,001,2024-11-21_14h23.01.886,Delay Discounting,2024.2.1post4,59.76561122231058,2024-11-21 14h23.09.910227 +0530,
11,30,7,24,3,3,l,2.6011516000144184,None,3,3,24,0,74.13269080000464,,74.12193040002603,74.13269080000464,75.13266589993145,75.13266589993145,75.13266589993145,77.73582159995567,l,2.6011516000144184,None,902306,001,2024-11-21_14h23.01.886,Delay Discounting,2024.2.1post4,59.76561122231058,2024-11-21 14h23.09.910227 +0530,
49,60,89,25,4,3,l,1.805401699966751,None,3,4,25,4,77.74938199995086,,77.73792280000634,77.74938199995086,78.74940179998521,78.74940179998521,78.74940179998521,80.5688850999577,l,1.805401699966751,None,902306,001,2024-11-21_14h23.01.886,Delay Discounting,2024.2.1post4,59.76561122231058,2024-11-21 14h23.09.910227 +0530,
40,55,62,26,5,3,l,2.297645900049247,None,3,5,26,3,80.58257099997718,,80.57083099999,80.58257099997718,81.58268929994665,81.58268929994665,81.58268929994665,83.88936210004613,l,2.297645900049247,None,902306,001,2024-11-21_14h23.01.886,Delay Discounting,2024.2.1post4,59.76561122231058,2024-11-21 14h23.09.910227 +0530,
27,50,21,27,6,3,l,2.1353443999541923,None,3,6,27,2,83.90100890002213,,83.89296169998124,83.90100890002213,84.89941790001467,84.89941790001467,84.91618920001201,87.05191789998207,l,2.1353443999541923,None,902306,001,2024-11-21_14h23.01.886,Delay Discounting,2024.2.1post4,59.76561122231058,2024-11-21 14h23.09.910227 +0530,
11,30,7,28,0,4,l,1.7575734000420198,None,4,0,28,0,87.0657113000052,,87.05412169999909,87.0657113000052,88.06547060003504,88.06547060003504,88.06547060003504,89.83551050000824,l,1.7575734000420198,None,902306,001,2024-11-21_14h23.01.886,Delay Discounting,2024.2.1post4,59.76561122231058,2024-11-21 14h23.09.910227 +0530,
49,60,89,29,1,4,l,2.423818300012499,None,4,1,29,4,89.8489164999919,,89.83760189998429,89.8489164999919,90.84885860001668,90.84885860001668,90.84885860001668,93.28547170001548,l,2.423818300012499,None,902306,001,2024-11-21_14h23.01.886,Delay Discounting,2024.2.1post4,59.76561122231058,2024-11-21 14h23.09.910227 +0530,
78,80,162,30,2,4,t,1.6474705999717116,None,4,2,30,6,93.29857370001264,,93.28772809996735,93.29857370001264,94.29919529997278,94.29919529997278,94.29919529997278,95.95179960003588,t,1.6474705999717116,None,902306,001,2024-11-21_14h23.01.886,Delay Discounting,2024.2.1post4,59.76561122231058,2024-11-21 14h23.09.910227 +0530,
15,35,13,31,3,4,l,1.1668443999951705,None,4,3,31,1,95.96559289994184,,95.95386280003004,95.96559289994184,96.96545290003996,96.96545290003996,96.96545290003996,98.13549619994592,l,1.1668443999951705,None,902306,001,2024-11-21_14h23.01.886,Delay Discounting,2024.2.1post4,59.76561122231058,2024-11-21 14h23.09.910227 +0530,
27,50,21,32,4,4,l,1.58893149998039,None,4,4,32,2,98.14916909998283,,98.13782990002073,98.14916909998283,99.1487533999607,99.1487533999607,99.1487533999607,100.75145660003182,l,1.58893149998039,None,902306,001,2024-11-21_14h23.01.886,Delay Discounting,2024.2.1post4,59.76561122231058,2024-11-21 14h23.09.910227 +0530,
40,55,62,33,5,4,l,1.9502488999860361,None,4,5,33,3,100.76575040002353,,100.75394930003677,100.76575040002353,101.76556400000118,101.76556400000118,101.76556400000118,103.71809650002979,l,1.9502488999860361,None,902306,001,2024-11-21_14h23.01.886,Delay Discounting,2024.2.1post4,59.76561122231058,2024-11-21 14h23.09.910227 +0530,
67,75,119,34,6,4,t,1.3632389000849798,None,4,6,34,5,103.73240490001626,,103.72002899996005,103.73240490001626,104.73241830000188,104.73241830000188,104.73241830000188,106.10134019993711,t,1.3632389000849798,None,902306,001,2024-11-21_14h23.01.886,Delay Discounting,2024.2.1post4,59.76561122231058,2024-11-21 14h23.09.910227 +0530,
27,50,21,35,0,5,l,3.778417600085959,None,5,0,35,2,106.11563499993645,,106.10326040000655,106.11563499993645,107.11537809995934,107.11537809995934,107.11537809995934,110.9018849999411,l,3.778417600085959,None,902306,001,2024-11-21_14h23.01.886,Delay Discounting,2024.2.1post4,59.76561122231058,2024-11-21 14h23.09.910227 +0530,
11,30,7,36,1,5,l,7.811621599947102,None,5,1,36,0,110.91535240004305,,110.90393789997324,110.91535240004305,111.91608939995058,111.91608939995058,111.91608939995058,119.73462590004783,l,7.811621599947102,None,902306,001,2024-11-21_14h23.01.886,Delay Discounting,2024.2.1post4,59.76561122231058,2024-11-21 14h23.09.910227 +0530,
67,75,119,37,2,5,t,3.529656699975021,None,5,2,37,5,119.74889449996408,,119.73659959994256,119.74889449996408,120.74897279997822,120.74897279997822,120.74897279997822,124.28422709996812,t,3.529656699975021,None,902306,001,2024-11-21_14h23.01.886,Delay Discounting,2024.2.1post4,59.76561122231058,2024-11-21 14h23.09.910227 +0530,
15,35,13,38,3,5,l,0.992715600063093,None,5,3,38,1,124.29827539995313,,124.2861896000104,124.29827539995313,125.29807689995505,125.29807689995505,125.29807689995505,126.30236420000438,l,0.992715600063093,None,902306,001,2024-11-21_14h23.01.886,Delay Discounting,2024.2.1post4,59.76561122231058,2024-11-21 14h23.09.910227 +0530,
78,80,162,39,4,5,l,1.5502284000394866,None,5,4,39,6,126.31564269994851,,126.30450169998221,126.31564269994851,127.31472120003309,127.31472120003309,127.31472120003309,128.8683131999569,l,1.5502284000394866,None,902306,001,2024-11-21_14h23.01.886,Delay Discounting,2024.2.1post4,59.76561122231058,2024-11-21 14h23.09.910227 +0530,
40,55,62,40,5,5,l,2.21318040008191,None,5,5,40,3,128.8818903999636,,128.87040749995504,128.8818903999636,129.88187089993153,129.88187089993153,129.88187089993153,132.10138919996098,l,2.21318040008191,None,902306,001,2024-11-21_14h23.01.886,Delay Discounting,2024.2.1post4,59.76561122231058,2024-11-21 14h23.09.910227 +0530,
49,60,89,41,6,5,l,2.283188799978234,None,5,6,41,4,132.11549959995318,,132.10349060001317,132.11549959995318,133.11555670003872,133.11555670003872,133.11555670003872,135.40156299993396,l,2.283188799978234,None,902306,001,2024-11-21_14h23.01.886,Delay Discounting,2024.2.1post4,59.76561122231058,2024-11-21 14h23.09.910227 +0530,
67,75,119,42,0,6,t,3.930067399982363,None,6,0,42,5,135.41521390003618,,135.40350579994265,135.41521390003618,136.41504430002533,136.41504430002533,136.41504430002533,140.35123190004379,t,3.930067399982363,None,902306,001,2024-11-21_14h23.01.886,Delay Discounting,2024.2.1post4,59.76561122231058,2024-11-21 14h23.09.910227 +0530,
11,30,7,43,1,6,l,1.5319168000714853,None,6,1,43,0,140.36495690001175,,140.35338510002475,140.36495690001175,141.3653758999426,141.3653758999426,141.3653758999426,142.90106870001182,l,1.5319168000714853,None,902306,001,2024-11-21_14h23.01.886,Delay Discounting,2024.2.1post4,59.76561122231058,2024-11-21 14h23.09.910227 +0530,
78,80,162,44,2,6,t,4.24365029996261,None,6,2,44,6,142.9153581999708,,142.90306179993786,142.9153581999708,143.91453609999735,143.91453609999735,143.91453609999735,148.16784629994072,t,4.24365029996261,None,902306,001,2024-11-21_14h23.01.886,Delay Discounting,2024.2.1post4,59.76561122231058,2024-11-21 14h23.09.910227 +0530,
27,50,21,45,3,6,l,2.1003898999188095,None,6,3,45,2,148.18198120000307,,148.17022860003635,148.18198120000307,149.18152460001875,149.18152460001875,149.18152460001875,151.28429590002634,l,2.1003898999188095,None,902306,001,2024-11-21_14h23.01.886,Delay Discounting,2024.2.1post4,59.76561122231058,2024-11-21 14h23.09.910227 +0530,
40,55,62,46,4,6,l,2.568295000004582,None,6,4,46,3,151.29852269997355,,151.2862288999604,151.29852269997355,152.29828260000795,152.29828260000795,152.29828260000795,154.8684149000328,l,2.568295000004582,None,902306,001,2024-11-21_14h23.01.886,Delay Discounting,2024.2.1post4,59.76561122231058,2024-11-21 14h23.09.910227 +0530,
15,35,13,47,5,6,l,1.3700705000665039,None,6,5,47,1,154.88159779994749,,154.87131049996242,154.88159779994749,155.88125989993569,155.88125989993569,155.88125989993569,157.26752280001529,l,1.3700705000665039,None,902306,001,2024-11-21_14h23.01.886,Delay Discounting,2024.2.1post4,59.76561122231058,2024-11-21 14h23.09.910227 +0530,
49,60,89,48,6,6,l,4.738112700055353,None,6,6,48,4,157.28181309998035,,157.26958870003,157.28181309998035,158.28180620004423,158.28180620004423,158.28180620004423,163.03435690002516,l,4.738112700055353,None,902306,001,2024-11-21_14h23.01.886,Delay Discounting,2024.2.1post4,59.76561122231058,2024-11-21 14h23.09.910227 +0530,
27,50,21,49,0,7,l,6.22372810007073,None,7,0,49,2,163.0478861000156,,163.03716659999918,163.0478861000156,164.0478756999364,164.0478756999364,164.0478756999364,170.28443060000427,l,6.22372810007073,None,902306,001,2024-11-21_14h23.01.886,Delay Discounting,2024.2.1post4,59.76561122231058,2024-11-21 14h23.09.910227 +0530,
78,80,162,50,1,7,t,1.0348982000723481,None,7,1,50,6,170.2981006000191,,170.2870283999946,170.2981006000191,171.2985654999502,171.2985654999502,171.2985654999502,172.3347542999545,t,1.0348982000723481,None,902306,001,2024-11-21_14h23.01.886,Delay Discounting,2024.2.1post4,59.76561122231058,2024-11-21 14h23.09.910227 +0530,
49,60,89,51,2,7,l,5.532478699926287,None,7,2,51,4,172.3489547999343,,172.33715859998483,172.3489547999343,173.34778599999845,173.34778599999845,173.34778599999845,178.8838602999458,l,5.532478699926287,None,902306,001,2024-11-21_14h23.01.886,Delay Discounting,2024.2.1post4,59.76561122231058,2024-11-21 14h23.09.910227 +0530,
11,30,7,52,3,7,l,1.7440162999555469,None,7,3,52,0,178.89780779997818,,178.88650210003834,178.89780779997818,179.89761330001056,179.89761330001056,179.89761330001056,181.65069299994502,l,1.7440162999555469,None,902306,001,2024-11-21_14h23.01.886,Delay Discounting,2024.2.1post4,59.76561122231058,2024-11-21 14h23.09.910227 +0530,
40,55,62,53,4,7,l,2.580987000023015,None,7,4,53,3,181.66452240000945,,181.65267189999577,181.66452240000945,182.66456840001047,182.66456840001047,182.66456840001047,185.25133360002656,l,2.580987000023015,None,902306,001,2024-11-21_14h23.01.886,Delay Discounting,2024.2.1post4,59.76561122231058,2024-11-21 14h23.09.910227 +0530,
67,75,119,54,5,7,t,0.6036551001016051,None,7,5,54,5,185.26445040002,,185.2538140999386,185.26445040002,186.26438980002422,186.26438980002422,186.26438980002422,186.88363719999325,t,0.6036551001016051,None,902306,001,2024-11-21_14h23.01.886,Delay Discounting,2024.2.1post4,59.76561122231058,2024-11-21 14h23.09.910227 +0530,
15,35,13,55,6,7,l,1.00675289996434,None,7,6,55,1,186.8981982000405,,186.8856861999957,186.8981982000405,187.89811750000808,187.89811750000808,187.89811750000808,188.91795200004708,l,1.00675289996434,None,902306,001,2024-11-21_14h23.01.886,Delay Discounting,2024.2.1post4,59.76561122231058,2024-11-21 14h23.09.910227 +0530,
27,50,21,56,0,8,l,0.9450608999468386,None,8,0,56,2,188.93160769995302,,188.92033330001868,188.93160769995302,189.91523030004464,189.91523030004464,189.93150129995774,190.8678920000093,l,0.9450608999468386,None,902306,001,2024-11-21_14h23.01.886,Delay Discounting,2024.2.1post4,59.76561122231058,2024-11-21 14h23.09.910227 +0530,
15,35,13,57,1,8,l,1.1669068000046536,None,8,1,57,1,190.88134870002978,,190.86980750004295,190.88134870002978,191.88105279998854,191.88105279998854,191.88105279998854,193.04995809996035,l,1.1669068000046536,None,902306,001,2024-11-21_14h23.01.886,Delay Discounting,2024.2.1post4,59.76561122231058,2024-11-21 14h23.09.910227 +0530,
40,55,62,58,2,8,l,0.8325275999959558,None,8,2,58,3,193.06449020002037,,193.0518978999462,193.06449020002037,194.064424399985,194.064424399985,194.064424399985,194.90106359997299,l,0.8325275999959558,None,902306,001,2024-11-21_14h23.01.886,Delay Discounting,2024.2.1post4,59.76561122231058,2024-11-21 14h23.09.910227 +0530,
67,75,119,59,3,8,t,0.9369032999966294,None,8,3,59,5,194.91403800004628,,194.90309709997382,194.91403800004628,195.9148642999353,195.9148642999353,195.9148642999353,196.86828149994835,t,0.9369032999966294,None,902306,001,2024-11-21_14h23.01.886,Delay Discounting,2024.2.1post4,59.76561122231058,2024-11-21 14h23.09.910227 +0530,
78,80,162,60,4,8,t,1.0489745000377297,None,8,4,60,6,196.88093300000764,,196.87113240000326,196.88093300000764,197.88086619996466,197.88086619996466,197.88086619996466,198.93391100002918,t,1.0489745000377297,None,902306,001,2024-11-21_14h23.01.886,Delay Discounting,2024.2.1post4,59.76561122231058,2024-11-21 14h23.09.910227 +0530,
49,60,89,61,5,8,l,1.3299570999806747,None,8,5,61,4,198.9479695999762,,198.9358272999525,198.9479695999762,199.94778259994928,199.94778259994928,199.94778259994928,201.28384519997053,l,1.3299570999806747,None,902306,001,2024-11-21_14h23.01.886,Delay Discounting,2024.2.1post4,59.76561122231058,2024-11-21 14h23.09.910227 +0530,
11,30,7,62,6,8,l,0.936866500065662,None,8,6,62,0,201.2973776999861,,201.28636789997108,201.2973776999861,202.2977679000469,202.2977679000469,202.2977679000469,203.25052140001208,l,0.936866500065662,None,902306,001,2024-11-21_14h23.01.886,Delay Discounting,2024.2.1post4,59.76561122231058,2024-11-21 14h23.09.910227 +0530,
67,75,119,63,0,9,t,0.8543765000067651,None,9,0,63,5,203.26442699995823,,203.25255400000606,203.26442699995823,204.26456080004573,204.26456080004573,204.26456080004573,205.13326120004058,t,0.8543765000067651,None,902306,001,2024-11-21_14h23.01.886,Delay Discounting,2024.2.1post4,59.76561122231058,2024-11-21 14h23.09.910227 +0530,
78,80,162,64,1,9,t,1.053507500095293,None,9,1,64,6,205.1477519000182,,205.1352219999535,205.1477519000182,206.1474492000416,206.1474492000416,206.1474492000416,207.2178317999933,t,1.053507500095293,None,902306,001,2024-11-21_14h23.01.886,Delay Discounting,2024.2.1post4,59.76561122231058,2024-11-21 14h23.09.910227 +0530,
11,30,7,65,2,9,l,1.0050541000673547,None,9,2,65,0,207.23076049995143,,207.22092430002522,207.23076049995143,208.2306228999514,208.2306228999514,208.2306228999514,209.2505842000246,l,1.0050541000673547,None,902306,001,2024-11-21_14h23.01.886,Delay Discounting,2024.2.1post4,59.76561122231058,2024-11-21 14h23.09.910227 +0530,
40,55,62,66,3,9,l,1.2867421000264585,None,9,3,66,3,209.2645906000398,,209.2535016000038,209.2645906000398,210.26388899993617,210.26388899993617,210.26388899993617,211.56708780000918,l,1.2867421000264585,None,902306,001,2024-11-21_14h23.01.886,Delay Discounting,2024.2.1post4,59.76561122231058,2024-11-21 14h23.09.910227 +0530,
15,35,13,67,4,9,l,0.7822670999448746,None,9,4,67,1,211.5810473000165,,211.5690005000215,211.5810473000165,212.580811599968,212.580811599968,212.580811599968,213.36792560003232,l,0.7822670999448746,None,902306,001,2024-11-21_14h23.01.886,Delay Discounting,2024.2.1post4,59.76561122231058,2024-11-21 14h23.09.910227 +0530,
27,50,21,68,5,9,l,0.7093010999960825,None,9,5,68,2,213.38031080004293,,213.3699709000066,213.38031080004293,214.38027289998718,214.38027289998718,214.38027289998718,215.10016190004535,l,0.7093010999960825,None,902306,001,2024-11-21_14h23.01.886,Delay Discounting,2024.2.1post4,59.76561122231058,2024-11-21 14h23.09.910227 +0530,
49,60,89,69,6,9,l,1.2619511999655515,None,9,6,69,4,215.11381829995662,,215.1025044999551,215.11381829995662,216.1136809999589,216.1136809999589,216.1136809999589,217.38321320002433,l,1.2619511999655515,None,902306,001,2024-11-21_14h23.01.886,Delay Discounting,2024.2.1post4,59.76561122231058,2024-11-21 14h23.09.910227 +0530,
40,55,62,70,0,10,l,1.4171039999928325,None,10,0,70,3,217.3974203999387,,217.38581100001466,217.3974203999387,218.3970095999539,218.3970095999539,218.3970095999539,219.81737449998036,l,1.4171039999928325,None,902306,001,2024-11-21_14h23.01.886,Delay Discounting,2024.2.1post4,59.76561122231058,2024-11-21 14h23.09.910227 +0530,
49,60,89,71,1,10,t,1.1555697000585496,None,10,1,71,4,219.8306886999635,,219.81953979993705,219.8306886999635,220.8307141000405,220.8307141000405,220.8307141000405,222.0000868999632,t,1.1555697000585496,None,902306,001,2024-11-21_14h23.01.886,Delay Discounting,2024.2.1post4,59.76561122231058,2024-11-21 14h23.09.910227 +0530,
11,30,7,72,2,10,l,0.9993693999713287,None,10,2,72,0,222.0142364000203,,222.0019817999564,222.0142364000203,223.01377890002914,223.01377890002914,223.01377890002914,224.01651230000425,l,0.9993693999713287,None,902306,001,2024-11-21_14h23.01.886,Delay Discounting,2024.2.1post4,59.76561122231058,2024-11-21 14h23.09.910227 +0530,
78,80,162,73,3,10,t,1.0578761999495327,None,10,3,73,6,224.03102699993178,,224.01874039997347,224.03102699993178,225.03056139999535,225.03056139999535,225.03056139999535,226.10001049994025,t,1.0578761999495327,None,902306,001,2024-11-21_14h23.01.886,Delay Discounting,2024.2.1post4,59.76561122231058,2024-11-21 14h23.09.910227 +0530,
27,50,21,74,4,10,l,1.0668669999577105,None,10,4,74,2,226.1141485000262,,226.10195949999616,226.1141485000262,227.1136338999495,227.1136338999495,227.1136338999495,228.1836486000102,l,1.0668669999577105,None,902306,001,2024-11-21_14h23.01.886,Delay Discounting,2024.2.1post4,59.76561122231058,2024-11-21 14h23.09.910227 +0530,
15,35,13,75,5,10,l,0.6209034000057727,None,10,5,75,1,228.197805600008,,228.185561100021,228.197805600008,229.19735659996513,229.19735659996513,229.19735659996513,229.83351519994903,l,0.6209034000057727,None,902306,001,2024-11-21_14h23.01.886,Delay Discounting,2024.2.1post4,59.76561122231058,2024-11-21 14h23.09.910227 +0530,
67,75,119,76,6,10,t,0.7767729999031872,None,10,6,76,5,229.84722070000134,,229.83593469997868,229.84722070000134,230.84783410001546,230.84783410001546,230.84783410001546,231.63378060003743,t,0.7767729999031872,None,902306,001,2024-11-21_14h23.01.886,Delay Discounting,2024.2.1post4,59.76561122231058,2024-11-21 14h23.09.910227 +0530,
49,60,89,77,0,11,l,0.9432519000256434,None,11,0,77,4,231.64741119998507,,231.63658179994673,231.64741119998507,232.6466863999376,232.6466863999376,232.6466863999376,233.59967190003954,l,0.9432519000256434,None,902306,001,2024-11-21_14h23.01.886,Delay Discounting,2024.2.1post4,59.76561122231058,2024-11-21 14h23.09.910227 +0530,
15,35,13,78,1,11,l,1.388874499942176,None,11,1,78,1,233.61420820001513,,233.60177730000578,233.61420820001513,234.6139453999931,234.6139453999931,234.6139453999931,236.01684119994752,l,1.388874499942176,None,902306,001,2024-11-21_14h23.01.886,Delay Discounting,2024.2.1post4,59.76561122231058,2024-11-21 14h23.09.910227 +0530,
67,75,119,79,2,11,t,0.7925760999787599,None,11,2,79,5,236.0299283999484,,236.01892629999202,236.0299283999484,237.03011639998294,237.03011639998294,237.03011639998294,237.83417980000377,t,0.7925760999787599,None,902306,001,2024-11-21_14h23.01.886,Delay Discounting,2024.2.1post4,59.76561122231058,2024-11-21 14h23.09.910227 +0530,
27,50,21,80,3,11,l,0.5665904000634328,None,11,3,80,2,237.84760259999894,,237.836752000032,237.84760259999894,238.84717359999195,238.84717359999195,238.84717359999195,239.416532299947,l,0.5665904000634328,None,902306,001,2024-11-21_14h23.01.886,Delay Discounting,2024.2.1post4,59.76561122231058,2024-11-21 14h23.09.910227 +0530,
40,55,62,81,4,11,l,1.6721250000409782,None,11,4,81,3,239.43027180002537,,239.41875279997475,239.43027180002537,240.43109319999348,240.43109319999348,240.43109319999348,242.11589709995314,l,1.6721250000409782,None,902306,001,2024-11-21_14h23.01.886,Delay Discounting,2024.2.1post4,59.76561122231058,2024-11-21 14h23.09.910227 +0530,
11,30,7,82,5,11,l,0.6797265000641346,None,11,5,82,0,242.13055160001386,,242.117872599978,242.13055160001386,243.1303289999487,243.1303289999487,243.1303289999487,243.81652600003872,l,0.6797265000641346,None,902306,001,2024-11-21_14h23.01.886,Delay Discounting,2024.2.1post4,59.76561122231058,2024-11-21 14h23.09.910227 +0530,
78,80,162,83,6,11,t,1.3632322000339627,None,11,6,83,6,243.83067880000453,,243.81862539995927,243.83067880000453,244.83035950001795,244.83035950001795,244.83035950001795,246.20106879994273,t,1.3632322000339627,None,902306,001,2024-11-21_14h23.01.886,Delay Discounting,2024.2.1post4,59.76561122231058,2024-11-21 14h23.09.910227 +0530,
67,75,119,84,0,12,t,0.6632452999474481,None,12,0,84,5,246.21374839998316,,246.20355620002374,246.21374839998316,247.21389290003572,247.21389290003572,247.21389290003572,247.88400720001664,t,0.6632452999474481,None,902306,001,2024-11-21_14h23.01.886,Delay Discounting,2024.2.1post4,59.76561122231058,2024-11-21 14h23.09.910227 +0530,
27,50,21,85,1,12,l,0.6528120000148192,None,12,1,85,2,247.89741959993262,,247.8859511000337,247.89741959993262,248.897435199935,248.897435199935,248.9133359999396,249.56689350004308,l,0.6528120000148192,None,902306,001,2024-11-21_14h23.01.886,Delay Discounting,2024.2.1post4,59.76561122231058,2024-11-21 14h23.09.910227 +0530,
40,55,62,86,2,12,l,0.9886114000109956,None,12,2,86,3,249.5811529000057,,249.5692155000288,249.5811529000057,250.5798669999931,250.5798669999931,250.59671600000001,251.58291859994642,l,0.9886114000109956,None,902306,001,2024-11-21_14h23.01.886,Delay Discounting,2024.2.1post4,59.76561122231058,2024-11-21 14h23.09.910227 +0530,
11,30,7,87,3,12,l,0.7000114000402391,None,12,3,87,0,251.59716629993636,,251.5848560000304,251.59716629993636,252.59664420003537,252.59664420003537,252.59664420003537,253.29995380004402,l,0.7000114000402391,None,902306,001,2024-11-21_14h23.01.886,Delay Discounting,2024.2.1post4,59.76561122231058,2024-11-21 14h23.09.910227 +0530,
49,60,89,88,4,12,l,0.5634033000096679,None,12,4,88,4,253.31378830003086,,253.30193109996617,253.31378830003086,254.3138129999861,254.3138129999861,254.3138129999861,254.88261109997984,l,0.5634033000096679,None,902306,001,2024-11-21_14h23.01.886,Delay Discounting,2024.2.1post4,59.76561122231058,2024-11-21 14h23.09.910227 +0530,
15,35,13,89,5,12,l,0.6488945999881253,None,12,5,89,1,254.896785799996,,254.88468499993905,254.896785799996,255.8968281999696,255.8968281999696,255.8968281999696,256.5499240999343,l,0.6488945999881253,None,902306,001,2024-11-21_14h23.01.886,Delay Discounting,2024.2.1post4,59.76561122231058,2024-11-21 14h23.09.910227 +0530,
78,80,162,90,6,12,l,0.3368631999474019,None,12,6,90,6,256.5632695000386,,256.55204450001474,256.5632695000386,257.5632926999824,257.5632926999824,257.5632926999824,257.9164111999562,l,0.3368631999474019,None,902306,001,2024-11-21_14h23.01.886,Delay Discounting,2024.2.1post4,59.76561122231058,2024-11-21 14h23.09.910227 +0530,
40,55,62,91,0,13,l,0.8769246999872848,None,13,0,91,3,257.9300079999957,,257.91839679994155,257.9300079999957,258.9303554999642,258.9303554999642,258.9303554999642,259.8155726999976,l,0.8769246999872848,None,902306,001,2024-11-21_14h23.01.886,Delay Discounting,2024.2.1post4,59.76561122231058,2024-11-21 14h23.09.910227 +0530,
49,60,89,92,1,13,l,0.5454125000396743,None,13,1,92,4,259.8302377000218,,259.8178902999498,259.8302377000218,260.829901900026,260.829901900026,260.829901900026,261.38319349999074,l,0.5454125000396743,None,902306,001,2024-11-21_14h23.01.886,Delay Discounting,2024.2.1post4,59.76561122231058,2024-11-21 14h23.09.910227 +0530,
15,35,13,93,2,13,l,0.9268808000488207,None,13,2,93,1,261.39651220000815,,261.3851385000162,261.39651220000815,262.39657250000164,262.39657250000164,262.39657250000164,263.33284219994675,l,0.9268808000488207,None,902306,001,2024-11-21_14h23.01.886,Delay Discounting,2024.2.1post4,59.76561122231058,2024-11-21 14h23.09.910227 +0530,
67,75,119,94,3,13,t,0.5297387999016792,None,13,3,94,5,263.34681350004394,,263.3352763999719,263.34681350004394,264.3469360000454,264.3469360000454,264.3469360000454,264.8831491000019,t,0.5297387999016792,None,902306,001,2024-11-21_14h23.01.886,Delay Discounting,2024.2.1post4,59.76561122231058,2024-11-21 14h23.09.910227 +0530,
11,30,7,95,4,13,l,2.3364731000037864,None,13,4,95,0,264.89696699997876,,264.8852385999635,264.89696699997876,265.8968934000004,265.8968934000004,265.8968934000004,268.24935409997124,l,2.3364731000037864,None,902306,001,2024-11-21_14h23.01.886,Delay Discounting,2024.2.1post4,59.76561122231058,2024-11-21 14h23.09.910227 +0530,
27,50,21,96,5,13,l,2.502112800022587,None,13,5,96,2,268.26343339995947,,268.251321000047,268.26343339995947,269.2635334000224,269.2635334000224,269.2635334000224,271.76664739998523,l,2.502112800022587,None,902306,001,2024-11-21_14h23.01.886,Delay Discounting,2024.2.1post4,59.76561122231058,2024-11-21 14h23.09.910227 +0530,
78,80,162,97,6,13,t,0.7543484000489116,None,13,6,97,6,271.7801496000029,,271.76865400001407,271.7801496000029,272.7799951999914,272.7799951999914,272.7799951999914,273.5493060000008,t,0.7543484000489116,None,902306,001,2024-11-21_14h23.01.886,Delay Discounting,2024.2.1post4,59.76561122231058,2024-11-21 14h23.09.910227 +0530,
11,30,7,98,0,14,l,0.8864533000160009,None,14,0,98,0,273.56277830002364,,273.55141319998074,273.56277830002364,274.5632584999548,274.5632584999548,274.5632584999548,275.46643299993593,l,0.8864533000160009,None,902306,001,2024-11-21_14h23.01.886,Delay Discounting,2024.2.1post4,59.76561122231058,2024-11-21 14h23.09.910227 +0530,
27,50,21,99,1,14,l,1.10676760005299,None,14,1,99,2,275.47957710002083,,275.4683295999421,275.47957710002083,276.48010119993705,276.48010119993705,276.48010119993705,277.5994618999539,l,1.10676760005299,None,902306,001,2024-11-21_14h23.01.886,Delay Discounting,2024.2.1post4,59.76561122231058,2024-11-21 14h23.09.910227 +0530,
49,60,89,100,2,14,l,2.56668729998637,None,14,2,100,4,277.6132914000191,,277.6014072999824,277.6132914000191,278.61325699998997,278.61325699998997,278.61325699998997,281.18367459997535,l,2.56668729998637,None,902306,001,2024-11-21_14h23.01.886,Delay Discounting,2024.2.1post4,59.76561122231058,2024-11-21 14h23.09.910227 +0530,
78,80,162,101,3,14,t,0.6015769999939948,None,14,3,101,6,281.19616119994316,,281.1861005999381,281.19616119994316,282.1964346000459,282.1964346000459,282.1964346000459,282.79962980002165,t,0.6015769999939948,None,902306,001,2024-11-21_14h23.01.886,Delay Discounting,2024.2.1post4,59.76561122231058,2024-11-21 14h23.09.910227 +0530,
67,75,119,102,4,14,t,0.6429246000479907,None,14,4,102,5,282.81328180001583,,282.80189340002835,282.81328180001583,283.8132722999435,283.8132722999435,283.8132722999435,284.4656103999587,t,0.6429246000479907,None,902306,001,2024-11-21_14h23.01.886,Delay Discounting,2024.2.1post4,59.76561122231058,2024-11-21 14h23.09.910227 +0530,
15,35,13,103,5,14,l,0.8504398999502882,None,14,5,103,1,284.4795901000034,,284.4675435000099,284.4795901000034,285.4798762999708,285.4798762999708,285.4798762999708,286.33312810002826,l,0.8504398999502882,None,902306,001,2024-11-21_14h23.01.886,Delay Discounting,2024.2.1post4,59.76561122231058,2024-11-21 14h23.09.910227 +0530,
40,55,62,104,6,14,l,0.4053407000610605,None,14,6,104,3,286.34673400002066,,286.3352642999962,286.34673400002066,287.3460785000352,287.3460785000352,287.3460785000352,287.7659181000199,l,0.4053407000610605,None,902306,001,2024-11-21_14h23.01.886,Delay Discounting,2024.2.1post4,59.76561122231058,2024-11-21 14h23.09.910227 +0530,
